trial_num,session_num,stim_probability_left,contrast,position,response_choice,trial_correct,reaction_time
1,11,0.5,0.125,35.0,1,1.0,0.40879999999999983
2,11,0.5,0.25,-35.0,-1,1.0,5.491201
3,11,0.5,0.125,-35.0,-1,1.0,1.3224
4,11,0.5,0.125,-35.0,-1,1.0,2.533101000000002
5,11,0.5,0.0,35.0,1,1.0,0.2865010000000012
6,11,0.5,0.0625,-35.0,1,0.0,0.36630100000000354
7,11,0.5,0.0625,-35.0,-1,1.0,0.4888009999999987
8,11,0.5,1.0,35.0,1,1.0,0.20230100000000562
9,11,0.5,1.0,-35.0,-1,1.0,0.31180200000000724
10,11,0.5,0.25,-35.0,-1,1.0,0.2918020000000041
11,11,0.5,0.0,-35.0,1,0.0,0.5561020000000028
12,11,0.5,0.0625,-35.0,1,0.0,0.18090100000000575
13,11,0.5,0.0625,35.0,-1,0.0,0.24400099999999725
14,11,0.5,1.0,-35.0,-1,1.0,0.23810200000000492
15,11,0.5,0.125,-35.0,-1,1.0,0.6011019999999974
16,11,0.5,0.125,35.0,1,1.0,0.281801999999999
17,11,0.5,0.0625,35.0,1,1.0,0.4629020000000068
18,11,0.5,0.0625,-35.0,-1,1.0,0.3512020000000007
19,11,0.5,0.0625,-35.0,-1,1.0,0.6180009999999925
20,11,0.5,0.25,-35.0,-1,1.0,0.5522020000000083
21,11,0.5,1.0,35.0,1,1.0,0.17880200000000457
22,11,0.5,1.0,-35.0,-1,1.0,0.8371020000000016
23,11,0.5,0.0625,35.0,1,1.0,0.151401000000007
24,11,0.5,1.0,-35.0,-1,1.0,0.37320200000000625
25,11,0.5,0.25,-35.0,-1,1.0,0.2771009999999876
26,11,0.5,0.125,-35.0,1,0.0,0.2244010000000003
27,11,0.5,0.0625,-35.0,-1,1.0,0.32390100000000643
28,11,0.5,0.25,-35.0,-1,1.0,0.07410200000001055
29,11,0.5,0.25,-35.0,-1,1.0,0.40290200000001164
30,11,0.5,0.0625,35.0,1,1.0,0.4996019999999959
31,11,0.5,0.25,-35.0,-1,1.0,1.2912019999999984
32,11,0.5,0.0,35.0,-1,0.0,0.33530199999999866
33,11,0.5,0.0,35.0,-1,0.0,0.23690100000000314
34,11,0.5,0.25,-35.0,-1,1.0,0.5366009999999903
35,11,0.5,0.0,35.0,1,1.0,0.216401999999988
36,11,0.5,0.25,-35.0,-1,1.0,0.522201999999993
37,11,0.5,0.125,35.0,1,1.0,0.19570099999998547
38,11,0.5,1.0,-35.0,-1,1.0,0.3563020000000279
39,11,0.5,0.25,-35.0,-1,1.0,4.638601999999992
40,11,0.5,1.0,35.0,1,1.0,0.2559009999999944
41,11,0.5,0.25,35.0,1,1.0,0.1837020000000109
42,11,0.5,0.25,35.0,1,1.0,0.29840099999998415
43,11,0.5,0.0625,-35.0,1,0.0,0.19780200000002424
44,11,0.6,0.0625,35.0,1,1.0,0.5243009999999799
45,11,0.5,1.0,-35.0,-1,1.0,0.2723020000000247
46,11,0.5,0.125,-35.0,-1,1.0,0.4513019999999983
47,11,0.5,1.0,-35.0,-1,1.0,0.4676019999999994
48,11,0.5,0.0625,35.0,1,1.0,0.3909020000000112
49,11,0.5,0.0,-35.0,1,0.0,0.17410200000003329
50,11,0.5,0.25,-35.0,-1,1.0,0.2649020000000064
51,11,0.5,0.25,-35.0,-1,1.0,0.8101020000000005
52,11,0.5,0.125,-35.0,1,0.0,1.639002000000005
53,11,0.5,0.25,35.0,1,1.0,0.2326020000000142
54,11,0.5,0.25,-35.0,-1,1.0,1.162602000000021
55,11,0.5,0.0625,35.0,1,1.0,0.2649020000000064
56,11,0.5,0.0625,35.0,1,1.0,0.19900200000000723
57,11,0.5,0.125,35.0,1,1.0,0.1554010000000119
58,11,0.5,0.125,35.0,1,1.0,0.18520099999997797
59,11,0.5,0.125,35.0,1,1.0,0.19390199999998003
60,11,0.5,0.25,-35.0,-1,1.0,0.4289019999999937
61,11,0.5,0.125,35.0,1,1.0,0.30930100000000493
62,11,0.5,0.125,-35.0,1,0.0,0.1765010000000018
63,11,0.8,0.125,35.0,1,1.0,0.24070199999999886
64,11,0.5,1.0,-35.0,-1,1.0,0.22990200000000982
65,11,0.5,0.0625,35.0,-1,0.0,0.31760100000002467
66,11,0.5,0.0,-35.0,1,0.0,0.5658019999999908
67,11,0.5,0.0,-35.0,1,0.0,0.20410199999997758
68,11,0.5,0.125,35.0,1,1.0,0.20960099999996373
69,11,0.5,0.0625,35.0,1,1.0,0.21550100000001748
70,11,0.5,0.0625,35.0,1,1.0,0.19230199999992692
71,11,0.5,1.0,35.0,1,1.0,0.19150200000001405
72,11,0.5,0.125,-35.0,1,0.0,0.1813009999999622
73,11,0.8,0.125,-35.0,-1,1.0,0.9792020000000434
74,11,0.5,1.0,-35.0,-1,1.0,0.1836020000000076
75,11,0.5,0.125,35.0,-1,0.0,0.5768010000000459
76,11,0.7,0.125,-35.0,-1,1.0,0.28240200000004734
77,11,0.5,1.0,-35.0,-1,1.0,0.19150200000001405
78,11,0.5,1.0,-35.0,-1,1.0,0.2789009999999621
79,11,0.5,0.0625,35.0,-1,0.0,0.22100199999994175
80,11,0.3,0.0625,35.0,1,1.0,0.24670100000003004
81,11,0.5,1.0,-35.0,-1,1.0,0.2681010000000015
82,11,0.5,0.0625,35.0,1,1.0,0.5255020000000172
83,11,0.5,1.0,-35.0,-1,1.0,0.25270200000005616
84,11,0.5,0.25,-35.0,-1,1.0,0.5192019999999502
85,11,0.5,0.25,-35.0,-1,1.0,0.3512020000000007
86,11,0.5,0.25,35.0,1,1.0,0.21600100000000566
87,11,0.5,0.0625,35.0,1,1.0,0.24770099999994954
88,11,0.5,0.0,35.0,1,1.0,0.16240099999993163
89,11,0.5,1.0,-35.0,-1,1.0,0.4849020000000337
90,11,0.5,1.0,-35.0,-1,1.0,0.1962010000000305
91,11,0.5,0.25,-35.0,-1,1.0,0.29500099999995655
92,11,0.5,0.25,35.0,1,1.0,0.17860200000006898
93,11,0.5,0.0625,35.0,1,1.0,0.18840200000005325
94,11,0.5,0.125,-35.0,-1,1.0,0.2607020000000375
95,11,0.5,0.0,-35.0,-1,1.0,2.0147019999999998
96,11,0.5,0.0625,35.0,-1,0.0,0.2302010000000223
97,11,0.4,0.0625,35.0,-1,0.0,0.3076020000000881
98,11,0.5,1.0,35.0,1,1.0,0.19850200000001905
99,11,0.5,0.0625,-35.0,-1,1.0,0.18730100000004768
100,11,0.5,0.125,35.0,1,1.0,0.19200200000005907
101,11,0.5,1.0,-35.0,-1,1.0,0.2295010000000275
102,11,0.5,0.0625,35.0,1,1.0,0.2684019999999805
103,11,0.5,1.0,35.0,1,1.0,0.17800199999999222
104,11,0.5,0.0,35.0,-1,0.0,3.926200999999992
105,11,0.4,0.0,35.0,1,1.0,0.6277019999999993
106,11,0.5,1.0,35.0,1,1.0,0.19900200000006407
107,11,0.5,1.0,-35.0,-1,1.0,0.26450200000005
108,11,0.5,0.0625,35.0,1,1.0,0.27960100000001376
109,11,0.5,0.0625,35.0,-1,0.0,0.23930200000006607
110,11,0.5,0.0625,35.0,1,1.0,0.2567010000000778
111,11,0.5,0.25,-35.0,-1,1.0,0.2720010000000457
112,11,0.5,0.0625,-35.0,1,0.0,0.5273019999999633
113,11,0.5,0.0,35.0,-1,0.0,0.2739010000000235
114,11,0.5,0.25,-35.0,-1,1.0,0.23820100000000366
115,11,0.5,1.0,35.0,1,1.0,0.20300200000002633
116,11,0.5,1.0,35.0,1,1.0,0.20400099999994836
117,11,0.5,0.0625,-35.0,-1,1.0,0.5430010000000038
118,11,0.5,0.125,35.0,1,1.0,0.21430099999997765
119,11,0.5,0.25,35.0,1,1.0,0.20000100000004295
120,11,0.5,0.0625,-35.0,-1,1.0,0.4263009999999099
121,11,0.5,0.0,-35.0,1,0.0,0.28270099999997456
122,11,0.5,0.0,-35.0,-1,1.0,0.33730100000002494
123,11,0.5,0.0625,35.0,-1,0.0,0.2545020000000022
124,11,0.5,0.25,35.0,1,1.0,0.22410099999996191
125,11,0.5,0.125,-35.0,-1,1.0,0.3137010000000373
126,11,0.5,0.125,-35.0,1,0.0,0.2125019999999722
127,11,0.5,0.0625,-35.0,1,0.0,0.3933020000000056
128,11,0.5,0.25,-35.0,-1,1.0,0.29860199999995984
129,11,0.5,0.125,35.0,1,1.0,0.23120200000005298
130,11,0.5,0.125,-35.0,-1,1.0,0.2700019999999199
131,11,0.5,0.125,-35.0,-1,1.0,0.3022020000000225
132,11,0.5,0.0625,35.0,-1,0.0,0.4469010000000253
133,11,0.5,0.25,-35.0,-1,1.0,0.23860199999995757
134,11,0.5,1.0,-35.0,-1,1.0,0.2448020000000497
135,11,0.5,1.0,-35.0,-1,1.0,0.21850199999994402
136,11,0.5,0.0625,-35.0,-1,1.0,0.33060199999999895
137,11,0.5,0.25,35.0,1,1.0,0.22590200000001914
138,11,0.5,1.0,-35.0,-1,1.0,0.23210199999994074
139,11,0.5,0.0625,35.0,1,1.0,0.21230199999990873
140,11,0.5,0.125,35.0,1,1.0,0.29310099999997874
141,11,0.5,0.125,-35.0,1,0.0,0.15590099999985796
142,11,0.5,0.0625,35.0,1,1.0,0.17840099999989434
143,11,0.5,0.0625,35.0,1,1.0,0.26500099999998383
144,11,0.5,0.0,-35.0,-1,1.0,2.3762010000000373
145,11,0.5,0.0625,-35.0,-1,1.0,0.33740099999999984
146,11,0.5,0.0625,-35.0,-1,1.0,0.5629009999998971
147,11,0.5,1.0,35.0,1,1.0,0.1870009999998956
148,11,0.5,0.125,35.0,1,1.0,0.30850199999997585
149,11,0.5,1.0,-35.0,-1,1.0,0.24450100000001385
150,11,0.5,0.125,-35.0,1,0.0,0.4231009999998605
151,11,0.5,0.0625,-35.0,-1,1.0,0.18970100000001366
152,11,0.5,0.0625,-35.0,-1,1.0,0.34150099999999384
153,11,0.5,0.0625,35.0,-1,0.0,0.18590099999994436
154,11,0.3,0.0625,-35.0,1,0.0,0.24690099999997983
155,11,0.5,1.0,35.0,1,1.0,0.263800999999944
156,11,0.5,0.0625,35.0,1,1.0,0.43770200000005843
157,11,0.5,0.125,-35.0,-1,1.0,0.24240199999997003
158,11,0.5,1.0,35.0,1,1.0,0.2109019999999191
159,11,0.5,0.0625,35.0,1,1.0,0.29270199999996294
160,11,0.5,0.0625,35.0,1,1.0,0.025401999999985492
161,11,0.5,0.125,-35.0,-1,1.0,0.34160099999996874
162,11,0.5,1.0,-35.0,-1,1.0,0.1947020000000066
163,11,0.5,0.125,-35.0,-1,1.0,0.2637009999999691
164,11,0.5,0.0625,-35.0,-1,1.0,0.3800019999999904
165,11,0.5,0.0625,-35.0,-1,1.0,0.4852009999999609
166,11,0.5,1.0,-35.0,-1,1.0,0.30670099999997547
167,11,0.5,0.125,-35.0,-1,1.0,0.1868019999999433
168,11,0.5,0.125,-35.0,-1,1.0,0.2574019999999564
169,11,0.5,1.0,-35.0,-1,1.0,0.26830199999994875
170,11,0.5,1.0,-35.0,-1,1.0,0.23540200000002187
171,11,0.5,0.25,35.0,1,1.0,0.267900999999938
172,11,0.5,1.0,-35.0,-1,1.0,0.21460100000001603
173,11,0.5,0.125,-35.0,-1,1.0,0.23650199999997312
174,11,0.5,1.0,35.0,1,1.0,0.22210100000006605
175,11,0.5,1.0,-35.0,-1,1.0,0.20150100000000748
176,11,0.5,1.0,-35.0,-1,1.0,0.3256019999998898
177,11,0.5,0.25,35.0,1,1.0,0.3574019999999791
178,11,0.5,0.125,-35.0,-1,1.0,0.22150199999998677
179,11,0.5,0.125,-35.0,-1,1.0,0.31490199999996094
180,11,0.5,0.25,35.0,1,1.0,0.22520199999996748
181,11,0.5,0.0,35.0,-1,0.0,0.3613020000000233
182,11,0.3,0.0,-35.0,-1,1.0,2.904101999999966
183,11,0.5,1.0,35.0,1,1.0,0.21180100000003677
184,11,0.5,0.25,-35.0,-1,1.0,0.21550200000001496
185,11,0.5,0.25,35.0,1,1.0,0.23490099999992253
186,11,0.5,1.0,35.0,1,1.0,0.22030200000006062
187,11,0.5,1.0,35.0,1,1.0,0.18780099999992217
188,11,0.5,0.25,35.0,1,1.0,0.21780099999989488
189,11,0.5,0.125,35.0,1,1.0,0.20000099999992926
190,11,0.5,0.0625,35.0,-1,0.0,0.23250100000007023
191,11,0.6,0.0625,35.0,-1,0.0,0.13230200000009518
192,11,0.5,1.0,35.0,1,1.0,0.19860099999993963
193,11,0.5,0.125,-35.0,-1,1.0,0.38780099999996764
194,11,0.5,0.0625,35.0,1,1.0,0.31290199999989454
195,11,0.5,0.0625,-35.0,1,0.0,0.14820099999997183
196,11,0.7,0.0625,-35.0,-1,1.0,0.15570100000002185
197,11,0.5,1.0,-35.0,-1,1.0,0.24460199999998622
198,11,0.5,0.125,35.0,-1,0.0,0.2398009999999431
199,11,0.4,0.125,-35.0,-1,1.0,0.2506020000000717
200,11,0.5,1.0,35.0,1,1.0,0.1963020000000597
201,11,0.5,0.0625,35.0,-1,0.0,0.2637019999999666
202,11,0.4,0.0625,35.0,-1,0.0,0.18620099999998274
203,11,0.5,1.0,35.0,1,1.0,0.2150010000000293
204,11,0.5,0.25,35.0,1,1.0,0.2500009999998838
205,11,0.5,0.0,-35.0,1,0.0,0.20160099999998238
206,11,0.5,0.0625,35.0,1,1.0,0.49660099999994145
207,11,0.5,1.0,35.0,1,1.0,0.20670099999995273
208,11,0.5,0.25,35.0,1,1.0,0.2750019999999722
209,11,0.5,0.0,35.0,-1,0.0,0.3886009999999942
210,11,0.5,0.25,35.0,1,1.0,0.24450099999990016
211,11,0.5,1.0,-35.0,-1,1.0,0.24460099999998874
212,11,0.5,0.25,-35.0,-1,1.0,0.20570099999997637
213,11,0.5,1.0,35.0,1,1.0,0.180601999999908
214,11,0.5,0.125,35.0,1,1.0,0.223500999999942
215,11,0.5,1.0,-35.0,-1,1.0,0.2508019999999078
216,11,0.5,0.125,-35.0,-1,1.0,0.3023009999999431
217,11,0.5,0.0625,-35.0,-1,1.0,0.5797019999998838
218,11,0.5,0.0625,-35.0,-1,1.0,0.2995009999999638
219,11,0.5,0.0625,-35.0,1,0.0,0.7865020000000413
220,11,0.5,0.25,-35.0,-1,1.0,0.2639010000000326
221,11,0.5,0.25,-35.0,-1,1.0,0.25860199999988254
222,11,0.5,0.25,35.0,1,1.0,0.23060199999986253
223,11,0.5,0.125,35.0,1,1.0,0.27180199999997967
224,11,0.5,0.25,-35.0,-1,1.0,0.2873019999999542
225,11,0.5,0.0625,-35.0,-1,1.0,1.9899019999999155
226,11,0.5,0.25,35.0,1,1.0,0.2630010000000311
227,11,0.5,0.0625,35.0,1,1.0,0.2876019999999926
228,11,0.5,0.25,35.0,1,1.0,0.2619009999998525
229,11,0.5,0.0625,-35.0,-1,1.0,1.5073010000000977
230,11,0.5,0.0,35.0,-1,0.0,0.23370199999988017
231,11,0.5,0.0625,-35.0,1,0.0,0.4851019999999835
232,11,0.5,0.0625,35.0,1,1.0,0.4164009999999507
233,11,0.5,0.125,35.0,1,1.0,0.2971019999999953
234,11,0.5,0.25,35.0,1,1.0,0.2674009999999498
235,11,0.5,1.0,35.0,1,1.0,0.2247019999999793
236,11,0.5,0.0625,35.0,-1,0.0,2.4288010000000213
237,11,0.5,0.25,35.0,1,1.0,0.2900009999999611
238,11,0.5,0.0625,35.0,-1,0.0,0.26990200000000186
239,11,0.5,0.25,-35.0,-1,1.0,0.24580199999991237
240,11,0.5,0.125,-35.0,-1,1.0,0.21600099999989197
241,11,0.5,0.125,-35.0,-1,1.0,0.22390199999995275
242,11,0.5,0.125,35.0,1,1.0,0.2348020000000588
243,11,0.5,0.0625,-35.0,1,0.0,0.7663009999999986
244,11,0.5,0.0625,-35.0,1,0.0,0.332800999999904
245,11,0.5,0.0,35.0,-1,0.0,0.2709010000000944
246,11,0.4,0.0,-35.0,-1,1.0,0.2392019999998638
247,11,0.5,1.0,35.0,1,1.0,0.18390099999999165
248,11,0.5,0.0,35.0,1,1.0,0.21960200000000896
249,11,0.5,0.125,-35.0,-1,1.0,0.3039019999999937
250,11,0.5,0.0625,-35.0,-1,1.0,0.46600200000000314
251,11,0.5,1.0,-35.0,-1,1.0,0.2814019999999573
252,11,0.5,0.0,35.0,-1,0.0,0.45800099999996746
253,11,0.4,0.0,35.0,1,1.0,0.23290099999996983
254,11,0.5,1.0,35.0,1,1.0,0.207100999999966
255,11,0.5,0.0625,35.0,1,1.0,0.19030199999997421
256,11,0.5,0.0625,35.0,1,1.0,0.20480099999997492
257,11,0.5,0.0625,35.0,1,1.0,0.8768010000000004
258,11,0.5,1.0,-35.0,-1,1.0,0.3400019999999131
259,11,0.5,1.0,-35.0,-1,1.0,0.2953019999999924
260,11,0.5,1.0,-35.0,-1,1.0,0.2715009999999438
261,11,0.5,0.0,-35.0,1,0.0,0.9740010000000439
262,11,0.5,0.0625,35.0,1,1.0,0.2492019999999684
263,11,0.5,0.125,-35.0,-1,1.0,0.36520099999995637
264,11,0.5,0.25,-35.0,-1,1.0,0.251002000000085
265,11,0.5,1.0,-35.0,-1,1.0,0.22230100000001585
266,11,0.5,0.0,-35.0,1,0.0,0.2132009999999127
267,11,0.5,0.25,-35.0,-1,1.0,0.3301020000000108
268,11,0.5,0.0625,35.0,-1,0.0,0.25640199999998003
269,11,0.5,0.0,35.0,1,1.0,0.3200019999999313
270,11,0.5,0.0625,-35.0,1,0.0,0.17990099999997256
271,11,0.5,0.0625,-35.0,-1,1.0,0.2434009999999489
272,11,0.5,1.0,-35.0,-1,1.0,0.23350199999993038
273,11,0.5,0.25,-35.0,-1,1.0,0.2937009999999418
274,11,0.5,0.25,35.0,1,1.0,0.08060199999999895
275,11,0.5,1.0,-35.0,-1,1.0,0.2674019999999473
276,11,0.5,0.25,35.0,1,1.0,0.2272019999998065
277,11,0.5,0.0625,35.0,1,1.0,0.267301999999745
278,11,0.5,0.25,-35.0,-1,1.0,0.27740099999982704
279,11,0.5,1.0,35.0,1,1.0,0.17060100000026068
280,11,0.5,0.125,-35.0,-1,1.0,0.3081019999999626
281,11,0.5,1.0,-35.0,-1,1.0,0.30420100000014827
282,11,0.5,0.0625,-35.0,-1,1.0,0.261201999999912
283,11,0.5,0.0625,35.0,1,1.0,0.3744019999999182
284,11,0.5,0.125,35.0,1,1.0,0.6750009999998383
285,11,0.5,1.0,-35.0,-1,1.0,0.24800200000004224
286,11,0.5,1.0,-35.0,-1,1.0,0.40820099999973536
287,11,0.5,0.25,-35.0,-1,1.0,0.22140199999989818
288,11,0.5,0.0625,-35.0,-1,1.0,0.36540100000001985
289,11,0.5,0.0,35.0,1,1.0,0.27500099999997474
290,11,0.5,0.0,-35.0,-1,1.0,0.43550200000004224
291,11,0.5,1.0,35.0,1,1.0,0.3054019999999582
292,11,0.5,0.125,-35.0,-1,1.0,0.07560200000011719
293,11,0.5,1.0,35.0,1,1.0,0.16550099999994927
294,11,0.5,0.0625,35.0,1,1.0,0.2591019999999844
295,11,0.5,0.0625,-35.0,1,0.0,0.37940199999979995
296,11,0.5,0.0625,35.0,1,1.0,0.7026020000000699
297,11,0.5,1.0,35.0,1,1.0,0.22980099999995218
298,11,0.5,0.125,-35.0,-1,1.0,0.2892020000001594
299,11,0.5,1.0,35.0,1,1.0,0.2692019999999502
300,11,0.5,1.0,-35.0,-1,1.0,0.1827019999998356
301,11,0.5,0.0625,-35.0,-1,1.0,0.35280199999988326
302,11,0.5,0.125,35.0,1,1.0,0.35300099999994927
303,11,0.5,1.0,35.0,1,1.0,0.18980199999987235
304,11,0.5,0.0,35.0,-1,0.0,0.396502000000055
305,11,0.5,0.125,35.0,1,1.0,0.2501009999998587
306,11,0.5,1.0,-35.0,-1,1.0,0.25400199999990036
307,11,0.5,1.0,-35.0,-1,1.0,0.3202019999998811
308,11,0.5,0.25,35.0,1,1.0,0.31030100000020866
309,11,0.5,0.125,-35.0,-1,1.0,0.16780199999993783
310,11,0.5,0.0625,35.0,1,1.0,1.0409010000000762
311,11,0.5,0.0625,-35.0,-1,1.0,0.26420199999984106
312,11,0.5,0.0625,-35.0,-1,1.0,0.48050100000000384
313,11,0.5,0.0625,-35.0,-1,1.0,0.4246020000000499
314,11,0.5,0.0,35.0,1,1.0,1.3045009999998456
315,11,0.5,1.0,35.0,1,1.0,0.3074010000002545
316,11,0.5,0.0,-35.0,-1,1.0,1.5582010000000537
317,11,0.5,0.0,35.0,-1,0.0,0.21460099999990234
318,11,0.5,0.125,-35.0,-1,1.0,0.36480100000017046
319,11,0.5,1.0,35.0,1,1.0,0.18130199999995966
320,11,0.5,0.25,-35.0,-1,1.0,0.2612010000000282
321,11,0.5,0.25,35.0,1,1.0,0.261400999999978
322,11,0.5,0.25,35.0,1,1.0,0.24830199999996694
323,11,0.5,1.0,35.0,1,1.0,0.1685019999999895
324,11,0.5,0.0625,-35.0,-1,1.0,1.0953009999998358
325,11,0.5,0.25,35.0,1,1.0,0.22220199999992474
326,11,0.5,0.0,-35.0,1,0.0,0.5423009999999522
327,11,0.5,0.0,35.0,1,1.0,0.26230099999997947
328,11,0.5,0.0625,35.0,1,1.0,0.19960200000014083
329,11,0.5,1.0,35.0,1,1.0,0.25630200000000514
330,11,0.5,0.0625,-35.0,1,0.0,2.2724020000000564
331,11,0.5,0.25,35.0,-1,0.0,0.2368020000001252
332,11,0.8,0.25,-35.0,-1,1.0,0.3595020000000204
333,11,0.5,1.0,-35.0,-1,1.0,0.26660199999992074
334,11,0.5,0.0625,35.0,-1,0.0,1.3029010000000198
335,11,0.6,0.0625,-35.0,-1,1.0,0.44650199999978213
336,11,0.5,1.0,35.0,1,1.0,0.22360200000002806
337,11,0.5,1.0,-35.0,-1,1.0,0.2169019999998909
338,11,0.5,1.0,35.0,1,1.0,0.25050199999986944
339,11,0.5,0.25,-35.0,-1,1.0,0.2902010000000246
340,11,0.5,0.125,-35.0,-1,1.0,0.25070199999981924
341,11,0.5,1.0,-35.0,-1,1.0,0.5869010000001254
342,11,0.5,1.0,-35.0,-1,1.0,0.21760199999994256
343,11,0.5,0.0625,-35.0,-1,1.0,0.43390099999987797
344,11,0.5,1.0,-35.0,-1,1.0,0.39130199999999604
345,11,0.5,0.0625,35.0,-1,0.0,0.2742009999999482
346,11,0.5,0.125,35.0,1,1.0,0.4612009999998463
347,11,0.5,0.0625,-35.0,1,0.0,0.4445020000000568
348,11,0.5,0.0625,-35.0,1,0.0,0.2412019999999302
349,11,0.3,0.0625,35.0,1,1.0,0.45790099999999256
350,11,0.5,1.0,35.0,1,1.0,0.2852019999997992
351,11,0.5,0.0,35.0,1,1.0,0.15490199999999277
352,11,0.5,1.0,35.0,1,1.0,0.18170199999985925
353,11,0.5,0.25,35.0,1,1.0,0.19570199999998295
354,11,0.5,0.125,35.0,-1,0.0,0.1519020000000637
355,11,0.5,0.125,-35.0,-1,1.0,0.2818019999999706
356,11,0.5,0.0625,-35.0,-1,1.0,0.6320019999998294
357,11,0.5,1.0,35.0,1,1.0,0.22880199999985962
358,11,0.5,1.0,-35.0,-1,1.0,0.2354019999997945
359,11,0.5,0.25,-35.0,-1,1.0,0.24920099999985723
360,11,0.5,0.125,35.0,1,1.0,0.19940199999996366
361,11,0.5,0.25,35.0,1,1.0,0.44250099999999293
362,11,0.5,0.0625,-35.0,1,0.0,0.3325019999997494
363,11,0.5,0.125,35.0,1,1.0,0.4292009999999209
364,11,0.5,0.0625,-35.0,-1,1.0,0.2562009999999191
365,11,0.5,0.0625,35.0,-1,0.0,0.2995009999999638
366,11,0.5,0.125,35.0,-1,0.0,0.21980099999996128
367,11,0.5,0.0,-35.0,-1,1.0,0.2829020000001492
368,11,0.5,0.125,-35.0,-1,1.0,0.3801009999999678
369,11,0.5,1.0,-35.0,-1,1.0,0.233201999999892
370,11,0.5,0.0625,35.0,-1,0.0,0.8298019999999724
371,11,0.5,0.125,-35.0,-1,1.0,3.7331010000000333
372,11,0.5,1.0,-35.0,-1,1.0,0.2167019999999411
373,11,0.5,0.125,-35.0,-1,1.0,0.29730099999983395
374,11,0.5,0.0625,35.0,1,1.0,0.5071010000001479
375,11,0.5,0.0,35.0,-1,0.0,0.36700199999995675
376,11,0.1,0.0,35.0,-1,0.0,0.2872019999999793
377,11,0.5,1.0,35.0,1,1.0,0.2574010000000726
378,11,0.5,0.0,35.0,1,1.0,0.44420199999990473
379,11,0.5,0.0625,-35.0,1,0.0,0.6241019999999935
380,11,0.5,0.25,-35.0,-1,1.0,0.28820100000007187
381,11,0.5,1.0,-35.0,-1,1.0,0.20440199999984543
382,11,0.5,0.125,35.0,1,1.0,0.36100099999998747
383,11,0.5,0.25,-35.0,-1,1.0,0.23480099999983395
384,11,0.5,1.0,-35.0,-1,1.0,0.2245020000000295
385,11,0.5,0.0625,-35.0,-1,1.0,0.6846009999999296
386,11,0.5,1.0,-35.0,-1,1.0,0.3385009999999511
387,11,0.5,0.125,-35.0,-1,1.0,0.1887019999999211
388,11,0.5,0.25,35.0,1,1.0,0.2253019999998287
389,11,0.5,1.0,-35.0,-1,1.0,0.28860199999985525
390,11,0.5,1.0,35.0,-1,0.0,0.015400999999883425
391,11,0.5,0.0625,35.0,-1,0.0,0.46860100000003513
392,11,0.2,0.0625,35.0,1,1.0,0.20960200000013174
393,11,0.5,1.0,35.0,1,1.0,0.2860019999998258
394,11,0.5,0.0625,35.0,1,1.0,0.2859009999999671
395,11,0.5,0.125,-35.0,-1,1.0,0.28280199999994693
396,11,0.5,1.0,-35.0,-1,1.0,0.31920199999990473
397,11,0.5,1.0,-35.0,-1,1.0,0.22610099999997146
398,11,0.5,1.0,35.0,1,1.0,0.3564009999997779
399,11,0.5,0.0625,-35.0,-1,1.0,0.13270200000010846
400,11,0.5,0.25,-35.0,-1,1.0,0.2730019999999058
401,11,0.5,1.0,35.0,1,1.0,0.26650199999994584
402,11,0.5,0.25,35.0,1,1.0,0.24340200000006007
403,11,0.5,0.0625,35.0,1,1.0,0.4933019999998578
404,11,0.5,0.0625,35.0,1,1.0,0.47980200000006334
405,11,0.5,0.125,-35.0,-1,1.0,0.31050199999981487
406,11,0.5,0.25,35.0,1,1.0,0.20010200000001532
407,11,0.5,0.25,35.0,1,1.0,0.20760200000017903
408,11,0.5,0.0625,-35.0,-1,1.0,1.7305010000000038
409,11,0.5,0.0625,-35.0,-1,1.0,0.5877009999999245
410,11,0.5,0.0625,-35.0,-1,1.0,0.5708009999998467
411,11,0.5,0.25,-35.0,-1,1.0,0.2642009999999573
412,11,0.5,0.25,35.0,1,1.0,0.2808019999999942
413,11,0.5,1.0,35.0,1,1.0,0.19400100000007114
414,11,0.5,0.125,-35.0,-1,1.0,0.22100099999988743
415,11,0.5,0.0625,35.0,1,1.0,0.6144009999998161
416,11,0.5,0.0,-35.0,-1,1.0,0.2251019999998789
417,11,0.5,0.125,-35.0,-1,1.0,0.23120199999971192
418,11,0.5,1.0,-35.0,-1,1.0,0.2616009999999278
419,11,0.5,0.0625,-35.0,1,0.0,0.5255009999998492
420,11,0.5,0.25,35.0,1,1.0,0.36190099999976155
421,11,0.5,1.0,35.0,1,1.0,0.26820199999997385
422,11,0.5,1.0,35.0,1,1.0,0.23840100000006714
423,11,0.5,0.25,-35.0,-1,1.0,0.2319009999998798
424,11,0.5,0.0,35.0,1,1.0,0.14860199999998258
425,11,0.5,0.0625,-35.0,-1,1.0,1.9390009999997346
426,11,0.5,0.125,35.0,-1,0.0,0.2859009999999671
427,11,0.5,0.125,35.0,-1,0.0,0.1892019999997956
428,11,0.5,1.0,-35.0,-1,1.0,0.3359020000000328
429,11,0.5,1.0,35.0,1,1.0,0.29600200000004406
430,11,0.5,0.125,-35.0,-1,1.0,0.432501000000002
431,11,0.5,0.25,-35.0,-1,1.0,0.23270100000013372
432,11,0.5,0.25,35.0,1,1.0,0.25950099999977283
433,11,0.5,0.0625,35.0,1,1.0,0.29290099999980157
434,11,0.5,1.0,35.0,1,1.0,0.33960099999990234
435,11,0.5,0.0625,35.0,-1,0.0,0.2533019999998487
436,11,0.4,0.0625,35.0,-1,0.0,0.1970010000000002
437,11,0.5,1.0,35.0,1,1.0,0.209800999999743
438,11,0.5,1.0,-35.0,-1,1.0,0.3370009999998729
439,11,0.5,0.125,-35.0,-1,1.0,0.20360099999993508
440,11,0.5,1.0,-35.0,-1,1.0,0.25040100000001075
441,11,0.5,0.125,-35.0,-1,1.0,0.40370099999995546
442,11,0.5,0.0625,-35.0,1,0.0,0.25070099999993545
443,11,0.5,0.0625,35.0,-1,0.0,0.3206009999998969
444,11,0.5,0.25,35.0,1,1.0,0.2741009999999733
445,11,0.5,0.0625,35.0,1,1.0,0.6841019999997116
446,11,0.5,0.0625,-35.0,1,0.0,0.17470099999991362
447,11,0.5,0.0625,-35.0,-1,1.0,0.22090099999991253
448,11,0.5,0.25,-35.0,-1,1.0,0.17180100000018683
449,11,0.5,0.25,35.0,1,1.0,0.9479019999998854
450,11,0.5,1.0,-35.0,-1,1.0,0.4547019999999975
451,11,0.5,0.25,-35.0,-1,1.0,0.33470199999987926
452,11,0.5,0.0625,35.0,-1,0.0,0.23860100000001694
453,11,0.5,0.25,-35.0,-1,1.0,0.26220199999988836
454,11,0.5,0.0625,-35.0,1,0.0,0.5220010000000457
455,11,0.5,0.0625,-35.0,-1,1.0,0.6525010000000293
456,11,0.5,0.125,-35.0,-1,1.0,0.30870100000015555
457,11,0.5,0.125,35.0,1,1.0,0.325802000000067
458,11,0.5,0.125,-35.0,-1,1.0,0.2221020000001772
459,11,0.5,0.25,-35.0,-1,1.0,0.3122009999999591
460,11,0.5,0.25,35.0,1,1.0,1.2727020000002085
461,11,0.5,0.0,-35.0,-1,1.0,0.45580100000006496
462,11,0.5,0.125,35.0,-1,0.0,0.22940099999982522
463,11,0.5,0.125,35.0,-1,0.0,0.4030009999999038
464,11,0.5,0.0625,35.0,1,1.0,0.24590100000000348
465,11,0.5,0.25,35.0,1,1.0,0.2426020000000335
466,11,0.5,0.125,35.0,1,1.0,0.23970200000007935
467,11,0.5,0.125,35.0,1,1.0,0.23360100000013517
468,11,0.5,0.25,35.0,1,1.0,0.19640099999992344
469,11,0.5,0.0625,-35.0,-1,1.0,2.3531020000000353
470,11,0.5,0.0,35.0,-1,0.0,0.2932020000000648
471,11,0.5,0.0625,35.0,1,1.0,0.29690099999993436
472,11,0.5,0.0625,35.0,1,1.0,0.35370100000000093
473,11,0.5,0.0625,35.0,1,1.0,0.14680199999997967
474,11,0.5,0.0625,35.0,1,1.0,0.6836009999999533
475,11,0.5,0.25,35.0,1,1.0,0.44400199999995493
476,11,0.5,0.125,-35.0,-1,1.0,1.4476019999999608
477,11,0.5,1.0,-35.0,-1,1.0,0.2710010000000693
478,11,0.5,0.0625,-35.0,-1,1.0,0.9974009999998543
479,11,0.5,0.125,-35.0,-1,1.0,0.24790099999995618
480,11,0.5,0.125,35.0,1,1.0,0.5412010000000009
481,11,0.5,0.0,-35.0,-1,1.0,2.228100999999924
482,11,0.5,0.125,35.0,1,1.0,0.27480100000002494
483,11,0.5,0.25,-35.0,-1,1.0,0.27190200000018194
484,11,0.5,0.0625,35.0,1,1.0,1.0682020000001557
485,11,0.5,0.125,-35.0,-1,1.0,0.8849020000002383
486,11,0.5,0.125,-35.0,-1,1.0,0.33840200000008736
487,11,0.5,0.125,35.0,1,1.0,0.37180100000000493
488,11,0.5,0.125,-35.0,-1,1.0,0.39530200000012883
489,11,0.5,0.125,35.0,1,1.0,0.3121009999999842
490,11,0.5,1.0,-35.0,-1,1.0,0.2853020000000015
491,11,0.5,0.0,-35.0,1,0.0,0.6489019999999073
492,11,0.5,0.0625,35.0,-1,0.0,0.3021009999997659
493,11,0.5,0.25,35.0,1,1.0,0.3423010000001341
494,11,0.5,0.25,35.0,1,1.0,0.24570199999993747
495,11,0.5,0.125,35.0,-1,0.0,1.682600999999977
496,11,0.5,0.25,-35.0,-1,1.0,0.3562010000000555
497,11,0.5,1.0,35.0,1,1.0,0.19590100000027633
498,11,0.5,1.0,35.0,1,1.0,0.24610100000018065
499,11,0.5,0.125,35.0,1,1.0,0.29640199999994365
500,11,0.5,0.25,35.0,1,1.0,0.2630019999999149
501,11,0.5,0.125,-35.0,-1,1.0,0.10970199999974284
502,11,0.5,1.0,35.0,1,1.0,0.19000100000016573
503,11,0.5,1.0,-35.0,-1,1.0,0.23050099999977647
504,11,0.5,1.0,-35.0,-1,1.0,0.4071010000000115
505,11,0.5,0.0625,-35.0,-1,1.0,0.3736010000002352
506,11,0.5,0.125,35.0,1,1.0,0.3373020000001361
507,11,0.5,0.0625,35.0,1,1.0,0.5036020000000008
508,11,0.5,0.125,35.0,1,1.0,0.3906010000000606
509,11,0.5,0.0625,-35.0,-1,1.0,0.3638020000000779
510,11,0.5,0.25,35.0,-1,0.0,0.25100199999974393
511,11,0.5,0.125,-35.0,-1,1.0,0.33060100000011516
512,11,0.5,0.0625,-35.0,-1,1.0,0.31460199999992255
513,11,0.5,0.25,-35.0,-1,1.0,0.3410020000001168
514,11,0.5,1.0,35.0,1,1.0,0.2413010000000213
515,11,0.5,0.0,-35.0,1,0.0,1.0310010000000602
516,11,0.5,0.0,35.0,-1,0.0,0.2613019999998869
517,11,0.5,1.0,35.0,1,1.0,0.26090099999987615
518,11,0.5,0.0,35.0,1,1.0,0.961701999999832
519,11,0.5,0.0,-35.0,1,0.0,0.24490099999979975
520,11,0.5,0.25,35.0,1,1.0,0.34850200000005316
521,11,0.5,0.125,35.0,1,1.0,0.5346019999999498
522,11,0.5,1.0,-35.0,-1,1.0,-0.031597999999803505
523,11,0.5,1.0,-35.0,-1,1.0,0.24180200000000696
524,11,0.5,0.25,35.0,1,1.0,0.21830199999976685
525,11,0.5,0.0,-35.0,-1,1.0,0.3019019999999273
526,11,0.5,0.25,-35.0,-1,1.0,0.2655010000000857
527,11,0.5,0.125,-35.0,-1,1.0,0.6453010000000177
528,11,0.5,0.0625,35.0,-1,0.0,0.4027010000002065
529,11,0.5,0.25,-35.0,-1,1.0,0.2491019999999935
530,11,0.5,0.0625,35.0,1,1.0,0.6455010000001948
531,11,0.5,0.0625,35.0,-1,0.0,0.4590009999999438
532,11,0.2,0.0625,35.0,-1,0.0,0.33910199999991164
533,11,0.5,1.0,35.0,1,1.0,0.2191019999997934
534,11,0.5,0.125,-35.0,-1,1.0,0.2631019999998898
535,11,0.5,0.25,-35.0,-1,1.0,0.27250099999992017
536,11,0.5,0.0625,-35.0,1,0.0,0.8126019999999698
537,11,0.5,0.125,-35.0,-1,1.0,0.28600200000005316
538,11,0.5,0.125,35.0,-1,0.0,2.4198019999998905
539,11,0.5,0.25,-35.0,-1,1.0,0.23670100000003913
540,11,0.5,0.125,35.0,1,1.0,0.41390099999989616
541,11,0.5,0.0,-35.0,-1,1.0,0.7204020000001492
542,11,0.5,0.0625,35.0,-1,0.0,0.2266020000001845
543,11,0.3,0.0625,35.0,1,1.0,0.5236010000000988
544,11,0.5,1.0,35.0,1,1.0,0.18070200000011027
545,11,0.5,0.125,35.0,1,1.0,0.2738009999998212
546,11,0.5,1.0,-35.0,-1,1.0,0.2745009999998729
547,11,0.5,0.125,-35.0,-1,1.0,1.1238020000000688
548,11,0.5,0.125,35.0,1,1.0,0.6306019999999535
549,11,0.5,1.0,35.0,1,1.0,0.4043020000001434
550,11,0.5,1.0,-35.0,-1,1.0,0.32140099999992344
551,11,0.5,0.125,-35.0,-1,1.0,0.5442019999998138
552,11,0.5,1.0,35.0,1,1.0,0.2412010000000464
553,11,0.5,0.25,-35.0,-1,1.0,0.1810019999998076
554,11,0.5,0.25,-35.0,-1,1.0,0.3348009999999704
555,11,0.5,0.0,-35.0,1,0.0,0.27500099999997474
556,11,0.5,0.25,-35.0,-1,1.0,0.2713019999998778
557,11,0.5,0.0625,-35.0,-1,1.0,0.22160200000007535
558,11,0.5,0.0,35.0,1,1.0,0.9781020000000353
559,11,0.5,0.0625,35.0,-1,0.0,0.4549019999997199
560,11,0.5,0.0,-35.0,-1,1.0,0.8484020000000783
561,11,0.5,0.25,35.0,1,1.0,0.31850200000008044
562,11,0.5,0.25,35.0,1,1.0,0.2686020000001008
563,11,0.5,0.0625,35.0,1,1.0,0.10880199999996876
564,11,0.5,1.0,-35.0,-1,1.0,0.24870099999998274
565,11,0.5,0.0625,35.0,1,1.0,0.3023009999999431
566,11,0.5,0.125,35.0,1,1.0,0.798801999999796
567,11,0.5,0.0,-35.0,-1,1.0,0.4463020000000597
568,11,0.5,0.0625,35.0,1,1.0,0.4790009999999256
569,11,0.5,0.125,-35.0,-1,1.0,0.28600100000016937
570,11,0.5,1.0,-35.0,-1,1.0,0.32920199999989563
571,11,0.5,0.25,35.0,1,1.0,0.2025010000002112
572,11,0.5,0.25,-35.0,-1,1.0,0.2696019999998498
573,11,0.5,0.0625,-35.0,-1,1.0,0.30970200000047043
574,11,0.5,0.125,-35.0,-1,1.0,0.13620200000013938
575,11,0.5,0.25,35.0,1,1.0,0.29950100000041857
576,11,0.5,0.25,35.0,1,1.0,0.256401000000551
577,11,0.5,0.25,-35.0,-1,1.0,0.2997019999997974
578,11,0.5,0.125,-35.0,-1,1.0,0.2436020000004646
579,11,0.5,0.0,-35.0,-1,1.0,0.3500010000002476
580,11,0.5,0.25,35.0,1,1.0,0.23350200000004406
581,11,0.5,1.0,35.0,1,1.0,0.2737020000004122
582,11,0.5,0.125,-35.0,-1,1.0,0.19690200000013647
583,11,0.5,0.25,35.0,1,1.0,0.3969020000004093
584,11,0.5,0.25,-35.0,-1,1.0,0.29450100000030943
585,11,0.5,0.25,-35.0,-1,1.0,0.3104020000005221
586,11,0.5,0.0,35.0,1,1.0,0.4946020000002136
587,11,0.5,0.0625,35.0,1,1.0,0.3343009999998685
588,11,0.5,0.125,-35.0,-1,1.0,0.3974020000005112
589,11,0.5,0.25,35.0,1,1.0,0.23740200000020195
590,11,0.5,0.125,-35.0,-1,1.0,0.39450200000010227
591,11,0.5,1.0,-35.0,-1,1.0,0.18110100000058083
592,11,0.5,0.0625,-35.0,1,0.0,0.4646010000001297
593,11,0.5,0.0625,-35.0,-1,1.0,0.3278010000003633
594,11,0.5,0.25,35.0,1,1.0,0.3312010000004193
595,11,0.5,0.0625,35.0,-1,0.0,0.30460100000027523
596,11,0.5,0.0625,-35.0,-1,1.0,0.2148010000000795
597,11,0.5,1.0,-35.0,-1,1.0,0.2187010000002374
598,11,0.5,0.0625,-35.0,-1,1.0,0.32500100000015664
599,11,0.5,0.125,35.0,1,1.0,1.2952009999999063
600,11,0.5,0.0625,35.0,1,1.0,0.3852010000005066
601,11,0.5,0.125,-35.0,-1,1.0,0.40530200000011973
602,11,0.5,1.0,35.0,1,1.0,0.25190199999997276
603,11,0.5,0.125,35.0,1,1.0,0.5221020000003591
604,11,0.5,0.25,35.0,1,1.0,0.26900200000045515
605,11,0.5,0.25,-35.0,-1,1.0,0.2522020000005796
606,11,0.5,0.125,-35.0,-1,1.0,2.6859010000002854
607,11,0.5,0.125,35.0,1,1.0,0.25900199999978213
608,11,0.5,0.25,35.0,1,1.0,0.25620100000014645
609,11,0.5,0.25,35.0,1,1.0,0.23950100000047314
610,11,0.5,0.125,35.0,-1,0.0,0.2527010000003429
611,11,0.5,0.25,35.0,1,1.0,0.23610100000041712
612,11,0.5,0.25,35.0,1,1.0,0.21620200000006662
613,11,0.5,1.0,-35.0,-1,1.0,0.2764010000005328
614,11,0.5,0.125,-35.0,-1,1.0,0.3331020000000535
615,11,0.5,0.25,35.0,1,1.0,0.22980200000029072
616,11,0.5,1.0,35.0,1,1.0,0.27000100000032035
617,11,0.5,0.0625,-35.0,-1,1.0,1.0701020000001336
618,11,0.5,0.0625,-35.0,1,0.0,0.2767009999997754
619,11,0.5,0.25,35.0,1,1.0,0.2702020000006087
620,11,0.5,0.25,35.0,1,1.0,0.3470020000004297
621,11,0.5,0.25,-35.0,-1,1.0,0.31380200000012337
622,11,0.5,1.0,-35.0,-1,1.0,0.22740199999998367
623,11,0.5,1.0,-35.0,-1,1.0,0.22050200000057885
624,11,0.5,1.0,35.0,1,1.0,0.21050100000002203
625,11,0.5,1.0,-35.0,-1,1.0,0.22740200000043842
626,11,0.5,0.0625,-35.0,-1,1.0,0.4108009999999922
627,11,0.5,0.0,35.0,-1,0.0,1.7976020000000972
628,11,0.5,0.0625,35.0,1,1.0,0.5516020000000026
629,11,0.5,0.25,-35.0,-1,1.0,0.3150020000002769
630,11,0.5,0.125,-35.0,-1,1.0,0.291501000000153
631,11,0.5,0.0625,35.0,1,1.0,0.5553020000002107
632,11,0.5,0.0625,35.0,-1,0.0,0.27470200000061595
633,11,0.3,0.0625,35.0,-1,0.0,1.6451019999999517
634,11,0.5,1.0,35.0,1,1.0,0.531601000000137
635,11,0.5,0.25,35.0,1,1.0,0.25540200000023106
636,11,0.5,0.0625,35.0,-1,0.0,2.4086010000005444
637,11,0.4,0.0625,35.0,-1,0.0,0.27220100000022285
638,11,0.5,1.0,-35.0,-1,1.0,0.34590100000059465
639,11,0.5,1.0,35.0,1,1.0,0.31230100000038874
640,11,0.5,0.0625,35.0,1,1.0,0.3154010000002927
641,11,0.5,1.0,-35.0,-1,1.0,0.5157010000002629
642,11,0.5,0.125,35.0,-1,0.0,0.05590200000006007
643,11,0.4,0.125,-35.0,-1,1.0,0.2727020000002085
644,11,0.5,1.0,35.0,1,1.0,0.1926010000001952
645,11,0.5,0.25,-35.0,-1,1.0,0.2927020000001903
646,11,0.5,0.0625,35.0,1,1.0,0.6263020000001234
647,11,0.5,0.0625,-35.0,-1,1.0,0.9366020000002209
648,11,0.5,0.125,35.0,1,1.0,0.25320200000032855
649,11,0.5,0.0625,35.0,1,1.0,0.11310100000036982
650,11,0.5,0.25,35.0,1,1.0,0.2796020000000681
651,11,0.5,0.25,35.0,1,1.0,0.1865020000000186
652,11,0.5,0.25,-35.0,1,0.0,0.18710199999986799
653,11,0.7,0.25,-35.0,-1,1.0,0.28350200000022596
654,11,0.5,1.0,-35.0,-1,1.0,0.2668010000002141
655,11,0.5,0.0625,35.0,1,1.0,0.31010100000048624
656,11,0.5,0.125,-35.0,-1,1.0,0.4244010000002163
657,11,0.5,0.125,-35.0,-1,1.0,0.2971010000001115
658,11,0.5,0.125,-35.0,-1,1.0,0.360501000000113
659,11,0.5,0.0625,-35.0,-1,1.0,3.4440010000002985
660,11,0.5,0.25,35.0,1,1.0,0.22120099999983722
661,11,0.5,1.0,35.0,1,1.0,0.40120100000012826
662,11,0.5,0.0625,-35.0,-1,1.0,0.26750099999981103
663,11,0.5,1.0,-35.0,-1,1.0,0.25460200000043187
664,11,0.5,0.125,-35.0,1,0.0,0.47480199999972683
665,11,0.5,0.0,35.0,-1,0.0,0.332100999999966
666,11,0.5,0.25,35.0,-1,0.0,0.18140100000027815
667,11,0.5,0.0625,-35.0,-1,1.0,0.37820200000032855
668,11,0.5,0.125,35.0,1,1.0,0.32810100000051534
669,11,0.5,1.0,-35.0,-1,1.0,0.2748010000004797
670,11,0.5,0.0625,35.0,-1,0.0,0.08550100000002203
671,11,0.5,0.125,-35.0,-1,1.0,0.38520199999993565
672,11,0.5,0.125,35.0,1,1.0,0.26160100000060993
673,11,0.5,0.25,-35.0,-1,1.0,0.3453020000001743
674,11,0.5,0.125,-35.0,-1,1.0,0.47900099999969825
675,11,0.5,0.0625,-35.0,-1,1.0,2.9921010000002752
676,11,0.5,0.25,35.0,1,1.0,0.30230200000005425
677,11,0.5,0.25,35.0,1,1.0,0.2822010000004411
678,11,0.5,0.0,-35.0,1,0.0,0.36590200000046025
679,11,0.5,0.0625,35.0,-1,0.0,0.09270199999991746
680,11,0.4,0.0625,-35.0,-1,1.0,0.289400999999998
681,11,0.5,1.0,35.0,1,1.0,0.21310100000027887
682,11,0.5,1.0,35.0,1,1.0,0.23980100000017046
683,11,0.5,0.125,-35.0,-1,1.0,0.26970200000005207
684,11,0.5,1.0,35.0,1,1.0,0.3864010000002054
685,11,0.5,0.25,35.0,1,1.0,0.2699010000001181
686,11,0.5,0.25,-35.0,-1,1.0,0.3973010000004251
687,11,0.5,0.0625,35.0,1,1.0,0.3366020000003118
688,11,0.5,0.0625,35.0,1,1.0,0.3437020000001212
689,11,0.5,1.0,35.0,1,1.0,0.24690200000077311
690,11,0.5,0.0625,35.0,1,1.0,0.4068020000004253
691,11,0.5,1.0,35.0,1,1.0,0.20020200000044497
692,11,0.5,0.25,-35.0,-1,1.0,0.28710199999977704
693,11,0.5,0.125,-35.0,1,0.0,0.18370099999992817
694,11,0.5,0.0,35.0,-1,0.0,0.3739020000002711
695,11,0.5,0.25,-35.0,-1,1.0,0.23780100000021775
696,11,0.5,0.25,-35.0,-1,1.0,0.2677019999996446
697,11,0.5,0.0,-35.0,-1,1.0,4.724202000000332
698,11,0.5,0.0625,35.0,1,1.0,0.44100099999968734
699,11,0.5,0.0,-35.0,1,0.0,0.9013020000002143
700,11,0.5,0.0625,-35.0,-1,1.0,0.3049020000003111
701,11,0.5,0.125,35.0,1,1.0,0.22830200000043988
702,11,0.5,0.0625,-35.0,1,0.0,1.5651020000000244
703,11,0.5,0.0625,-35.0,-1,1.0,0.1815020000003642
704,11,0.5,0.0,35.0,-1,0.0,0.37500100000033854
705,11,0.4,0.0,35.0,-1,0.0,0.3523019999997814
706,11,0.5,1.0,35.0,1,1.0,0.2655019999997421
707,11,0.5,0.0625,-35.0,-1,1.0,0.2887010000004011
708,11,0.5,0.0,35.0,-1,0.0,0.4487010000002556
709,11,0.4,0.0,-35.0,1,0.0,0.47540200000003097
710,11,0.5,1.0,35.0,1,1.0,0.1922020000001794
711,11,0.5,0.25,-35.0,-1,1.0,0.31590100000039456
712,11,0.5,1.0,-35.0,-1,1.0,0.7057019999997465
713,11,0.5,0.0,35.0,-1,0.0,0.8762020000003758
714,11,0.5,0.125,35.0,1,1.0,0.652501000000484
715,11,0.5,1.0,-35.0,-1,1.0,0.40990099999999074
716,11,0.5,1.0,35.0,1,1.0,0.21950100000003658
717,11,0.5,0.0625,35.0,1,1.0,0.336301999999705
718,11,0.5,1.0,-35.0,-1,1.0,0.2130010000000766
719,11,0.5,1.0,-35.0,-1,1.0,0.2630020000001423
720,11,0.5,0.125,-35.0,-1,1.0,0.3732010000003356
721,11,0.5,0.125,35.0,1,1.0,0.30640100000027815
722,11,0.5,0.0,-35.0,1,0.0,0.2698009999999158
723,11,0.5,0.25,-35.0,-1,1.0,0.2268010000002505
724,11,0.5,0.125,-35.0,-1,1.0,0.37660100000039165
725,11,0.5,0.125,35.0,1,1.0,0.29020200000013574
726,11,0.5,0.0625,-35.0,-1,1.0,0.2203020000001743
727,11,0.5,0.25,-35.0,-1,1.0,1.0105009999997492
728,11,0.5,0.125,-35.0,-1,1.0,0.48370100000011007
729,11,0.5,1.0,-35.0,-1,1.0,0.1307010000000446
730,11,0.5,1.0,35.0,1,1.0,0.28010200000016994
731,11,0.5,0.0625,-35.0,-1,1.0,1.7302009999998518
732,11,0.5,0.25,35.0,1,1.0,2.3603020000005017
733,11,0.5,1.0,-35.0,-1,1.0,0.3204009999999471
734,11,0.5,0.125,35.0,1,1.0,0.19380100000034872
735,11,0.5,0.0625,-35.0,-1,1.0,1.7540020000001277
736,11,0.5,0.0625,35.0,1,1.0,2.8307010000003174
737,11,0.5,1.0,35.0,1,1.0,0.32090199999993274
738,11,0.5,0.125,35.0,1,1.0,0.4644010000001799
739,11,0.5,0.0,-35.0,-1,1.0,5.184301999999661
740,11,0.5,1.0,-35.0,-1,1.0,0.20130100000051243
741,11,0.5,1.0,-35.0,-1,1.0,0.29790200000024925
742,11,0.5,0.0625,35.0,1,1.0,0.24800200000026962
743,11,0.5,0.0625,35.0,-1,0.0,0.2848010000002432
744,11,0.5,0.25,35.0,1,1.0,0.4483020000002398
745,11,0.5,0.125,-35.0,-1,1.0,0.26490200000034747
746,11,0.5,0.125,-35.0,-1,1.0,0.608400999999958
747,11,0.5,0.125,-35.0,-1,1.0,0.21170100000017555
748,11,0.5,1.0,-35.0,-1,1.0,0.3051020000002609
749,11,0.5,0.25,-35.0,-1,1.0,1.1153010000002723
750,11,0.5,0.0625,35.0,1,1.0,0.6787010000002738
751,11,0.5,0.25,-35.0,-1,1.0,0.3221010000002025
752,11,0.5,0.25,35.0,1,1.0,0.22890200000028926
753,11,0.5,0.125,35.0,1,1.0,1.0923009999996793
754,11,0.5,0.0,35.0,-1,0.0,3.1089019999999437
755,11,0.3,0.0,35.0,-1,0.0,0.39920100000017555
756,11,0.5,1.0,-35.0,-1,1.0,0.34250199999996767
757,11,0.5,0.125,-35.0,-1,1.0,0.286000999999942
758,11,0.5,0.0625,-35.0,-1,1.0,0.2794010000002345
759,11,0.5,0.0625,-35.0,-1,1.0,0.4995010000002367
760,11,0.5,1.0,-35.0,-1,1.0,0.3496020000002318
761,11,0.5,0.125,-35.0,-1,1.0,0.3696010000003298
762,11,0.5,1.0,-35.0,-1,1.0,0.329801000000316
763,11,0.5,1.0,-35.0,-1,1.0,0.29650100000026214
764,11,0.5,0.125,-35.0,-1,1.0,3.3066020000001117
765,11,0.5,0.0625,35.0,-1,0.0,0.2901010000000497
766,11,0.5,0.0,-35.0,1,0.0,0.5134020000000419
767,11,0.5,0.0625,35.0,1,1.0,0.7769020000005185
768,11,0.5,0.25,35.0,1,1.0,0.4204020000006494
769,11,0.5,0.0,35.0,-1,0.0,0.4905020000001059
770,11,0.3,0.0,35.0,-1,0.0,2.4773009999998976
771,11,0.5,1.0,35.0,1,1.0,0.2773019999999633
772,11,0.5,0.25,-35.0,-1,1.0,4.3441020000004755
773,11,0.5,0.25,35.0,1,1.0,0.4743020000000797
774,11,0.5,0.125,35.0,1,1.0,0.4410020000004806
775,11,0.5,1.0,-35.0,-1,1.0,0.24440099999992526
776,11,0.5,0.0,35.0,-1,0.0,0.30460100000027523
777,11,0.5,0.25,-35.0,-1,1.0,0.2613010000000031
778,11,0.5,0.125,35.0,1,1.0,0.3213020000002871
779,11,0.5,0.125,-35.0,-1,1.0,0.35470200000008845
780,11,0.5,0.0625,-35.0,-1,1.0,0.3915010000005168
781,11,0.5,0.125,35.0,1,1.0,0.3015010000003713
782,11,0.5,1.0,-35.0,-1,1.0,0.3884010000001581
783,11,0.5,1.0,35.0,1,1.0,0.2817019999997683
784,11,0.5,0.25,-35.0,-1,1.0,0.7019010000003618
785,11,0.5,0.0625,35.0,1,1.0,0.6119010000002163
786,11,0.5,0.125,-35.0,-1,1.0,0.38200200000028417
787,11,0.5,0.0625,-35.0,1,0.0,0.4722010000004957
788,11,0.5,0.0625,35.0,-1,0.0,0.48230100000000675
789,11,0.5,0.125,-35.0,-1,1.0,0.37560200000052646
790,11,0.5,0.125,-35.0,-1,1.0,0.3557010000004084
791,11,0.5,1.0,-35.0,-1,1.0,0.41570199999978286
792,11,0.5,1.0,-35.0,-1,1.0,0.24580100000048333
793,11,0.5,0.0625,35.0,-1,0.0,2.5925019999999677
794,11,0.5,0.0625,35.0,-1,0.0,0.28600200000028053
795,11,0.2,0.0625,35.0,-1,0.0,0.23280100000010862
796,11,0.5,1.0,35.0,1,1.0,0.10290100000020175
797,11,0.5,0.125,35.0,1,1.0,0.40290200000026744
798,11,0.5,1.0,35.0,1,1.0,0.22960199999988617
799,11,0.5,0.0625,35.0,1,1.0,0.3165009999997892
800,11,0.5,0.125,35.0,1,1.0,0.4598009999999704
801,11,0.5,0.125,-35.0,1,0.0,0.4733009999999922
802,11,0.5,0.25,35.0,1,1.0,0.2567010000002483
803,11,0.5,1.0,35.0,1,1.0,0.2601020000001881
804,11,0.5,0.125,35.0,1,1.0,0.48680100000001403
805,11,0.5,0.25,-35.0,-1,1.0,0.3269020000002456
806,11,0.5,0.25,35.0,1,1.0,0.23370199999999386
807,11,0.5,0.0,-35.0,1,0.0,5.6938020000002325
808,11,0.5,0.0,-35.0,-1,1.0,0.2608020000002398
809,11,0.5,0.0625,-35.0,-1,1.0,0.8141009999999369
810,11,0.5,0.0,35.0,-1,0.0,0.5176020000003518
811,11,0.5,0.125,-35.0,-1,1.0,0.2743010000003778
812,11,0.5,0.0,-35.0,-1,1.0,0.3344010000000708
813,11,0.5,0.25,-35.0,-1,1.0,0.2811010000004899
814,11,0.5,1.0,-35.0,-1,1.0,0.307901000000129
815,11,0.5,0.25,35.0,1,1.0,0.31460199999992255
816,11,0.5,0.125,35.0,1,1.0,0.3214020000000346
817,11,0.5,0.0625,35.0,1,1.0,0.2715020000005097
818,11,0.5,0.125,-35.0,-1,1.0,0.3449020000002747
819,11,0.5,0.125,-35.0,-1,1.0,0.29830200000014884
820,11,0.5,0.125,-35.0,-1,1.0,0.8118010000007416
821,11,0.5,0.0625,-35.0,1,0.0,0.23180199999978868
822,11,0.5,0.0625,35.0,-1,0.0,0.39860100000032617
823,11,0.5,0.125,-35.0,-1,1.0,0.31530200000042896
824,11,0.5,1.0,35.0,1,1.0,0.19880100000045786
825,11,0.5,0.125,-35.0,-1,1.0,0.37880200000017794
826,11,0.5,0.0625,-35.0,-1,1.0,2.5555020000001605
827,11,0.5,0.0625,35.0,1,1.0,0.6023010000003524
828,11,0.5,0.125,35.0,1,1.0,0.42920200000025943
829,11,0.5,0.125,35.0,1,1.0,0.3459020000000237
830,11,0.5,0.0625,-35.0,-1,1.0,0.34600200000022596
831,11,0.5,0.0625,-35.0,-1,1.0,2.6094020000005003
832,11,0.5,0.125,-35.0,-1,1.0,0.5763010000000577
833,11,0.5,1.0,35.0,1,1.0,0.27970100000038656
834,11,0.5,0.25,35.0,1,1.0,0.2931010000002061
835,11,0.5,0.0,35.0,-1,0.0,2.623102000000472
836,11,0.5,0.0625,-35.0,-1,1.0,0.31660200000033
837,11,0.5,0.25,35.0,-1,0.0,0.15330100000028324
838,11,0.5,0.125,35.0,1,1.0,0.3035020000002078
839,11,0.5,0.125,35.0,1,1.0,0.2870010000001457
840,11,0.5,0.125,-35.0,-1,1.0,0.893601000000217
841,11,0.5,1.0,-35.0,-1,1.0,0.3104010000006383
842,11,0.5,0.25,35.0,1,1.0,0.21730200000047262
843,11,0.5,1.0,-35.0,-1,1.0,0.27070099999991726
844,11,0.5,0.25,35.0,1,1.0,0.25400100000024395
845,11,0.5,0.25,35.0,1,1.0,0.24080099999991944
846,11,0.5,0.125,35.0,1,1.0,0.3109020000001692
847,11,0.5,0.125,35.0,1,1.0,0.234302000000298
848,11,0.5,0.0625,-35.0,1,0.0,0.6044020000003911
849,11,0.5,0.25,35.0,1,1.0,0.27440200000000914
850,11,0.5,0.0625,35.0,-1,0.0,0.40450100000043676
851,11,0.5,0.0,35.0,-1,0.0,0.19790100000000166
852,11,0.5,0.0,-35.0,-1,1.0,0.051502000000255066
853,11,0.5,0.0625,-35.0,1,0.0,0.7716009999999187
854,11,0.7,0.0625,35.0,1,1.0,0.41160100000024613
855,11,0.5,1.0,-35.0,-1,1.0,0.3451010000003407
856,11,0.5,1.0,35.0,1,1.0,0.24170200000025943
857,11,0.5,0.0625,35.0,1,1.0,0.4018020000003162
858,11,0.5,1.0,35.0,1,1.0,0.6386010000005626
859,11,0.5,0.25,35.0,1,1.0,0.23530200000004697
860,11,0.5,0.25,-35.0,-1,1.0,0.30890099999987797
861,11,0.5,0.125,-35.0,-1,1.0,0.3654020000003584
862,11,0.5,0.125,-35.0,-1,1.0,2.845600999999988
863,11,0.5,0.0,-35.0,-1,1.0,0.2559020000003329
864,11,0.5,1.0,-35.0,-1,1.0,0.3858020000002398
865,11,0.5,0.25,-35.0,-1,1.0,0.28590200000007826
866,11,0.5,0.25,35.0,1,1.0,0.29260100000010425
867,11,0.5,1.0,-35.0,-1,1.0,0.3129020000001219
868,11,0.5,0.25,35.0,1,1.0,0.37290200000006735
869,11,0.5,1.0,-35.0,-1,1.0,0.2929010000002563
870,11,0.5,0.0625,35.0,-1,0.0,0.6297020000006341
871,11,0.5,0.25,35.0,1,1.0,0.2532019999998738
872,11,0.5,1.0,35.0,1,1.0,0.22650100000009843
873,11,0.5,0.0625,35.0,1,1.0,0.3232010000001537
874,11,0.5,0.0625,-35.0,-1,1.0,0.3634020000004057
875,11,0.5,0.25,35.0,1,1.0,0.26350100000036036
876,11,0.5,0.25,-35.0,-1,1.0,0.27350200000046243
877,11,0.5,0.0,35.0,-1,0.0,0.12680100000034145
878,11,0.5,0.125,35.0,1,1.0,0.8769020000004275
879,11,0.5,1.0,-35.0,-1,1.0,0.2971009999996568
880,11,0.5,0.0625,35.0,-1,0.0,3.05380200000036
881,11,0.5,0.125,-35.0,-1,1.0,0.2573019999999815
882,11,0.5,0.0625,35.0,-1,0.0,5.130802000000131
883,11,0.5,0.0625,35.0,1,1.0,0.34770200000048135
884,11,0.5,0.25,-35.0,-1,1.0,0.6511020000002645
885,11,0.5,0.125,35.0,1,1.0,0.477900999999747
886,11,0.5,1.0,-35.0,-1,1.0,0.04120100000045568
887,11,0.5,0.25,-35.0,-1,1.0,0.4379010000002381
888,11,0.5,1.0,-35.0,-1,1.0,0.3280009999998583
889,11,0.5,1.0,35.0,1,1.0,0.2516019999998207
890,11,0.5,0.125,-35.0,-1,1.0,3.1949020000001838
891,11,0.5,0.0,35.0,1,1.0,0.3718010000002323
892,11,0.5,1.0,-35.0,-1,1.0,0.538401000000249
893,11,0.5,0.0625,-35.0,-1,1.0,3.881902000000082
894,11,0.5,1.0,35.0,1,1.0,0.248801000000185
895,11,0.5,1.0,35.0,1,1.0,0.20210199999974066
896,11,0.5,0.125,35.0,1,1.0,0.2722010000006776
897,11,0.5,1.0,-35.0,-1,1.0,0.2589020000000346
898,11,0.5,0.25,-35.0,-1,1.0,0.2590020000002369
899,11,0.5,0.25,-35.0,-1,1.0,0.4024010000002818
900,11,0.5,1.0,35.0,1,1.0,0.21250100000042949
901,11,0.5,1.0,-35.0,-1,1.0,0.21260200000051555
902,11,0.5,0.0,-35.0,1,0.0,0.5326020000002245
903,11,0.5,0.0625,-35.0,-1,1.0,0.33600200000046243
904,11,0.5,0.25,35.0,1,1.0,0.032801000000290514
905,11,0.5,0.125,-35.0,-1,1.0,2.6596009999998387
906,11,0.5,0.0,-35.0,1,0.0,7.326301000000512
907,11,0.5,0.0625,35.0,-1,0.0,0.5899019999997108
908,11,0.5,0.0625,35.0,1,1.0,0.3467019999998229
909,11,0.5,0.25,35.0,1,1.0,0.31680099999994127
910,11,0.5,1.0,35.0,1,1.0,0.38690200000019104
911,11,0.5,0.0625,-35.0,-1,1.0,0.4703020000001743
912,11,0.5,0.125,-35.0,-1,1.0,0.4705010000002403
913,11,0.5,1.0,-35.0,-1,1.0,0.5538020000003598
914,11,0.5,1.0,35.0,1,1.0,0.4239019999999982
915,11,0.5,0.25,35.0,1,1.0,1.780601999999817
916,11,0.5,1.0,35.0,1,1.0,0.23070099999995364
917,11,0.5,0.125,-35.0,-1,1.0,0.3242009999999027
918,11,0.5,0.0625,-35.0,-1,1.0,0.5109009999996488
919,11,0.5,0.125,35.0,1,1.0,0.2610010000003058
920,11,0.5,0.0625,-35.0,-1,1.0,0.22780199999988326
921,11,0.5,0.25,-35.0,-1,1.0,2.774402000000464
922,11,0.5,0.0625,-35.0,-1,1.0,0.45130100000051243
923,11,0.5,0.125,-35.0,-1,1.0,1.2214010000002418
924,11,0.5,1.0,-35.0,-1,1.0,0.3349010000006274
925,11,0.5,0.125,35.0,1,1.0,0.36830200000031255
926,11,0.5,1.0,-35.0,-1,1.0,0.5884020000003147
927,11,0.5,1.0,-35.0,-1,1.0,0.3419010000002345
928,11,0.5,0.0,35.0,-1,0.0,3.4619010000001254
929,11,0.5,0.0625,-35.0,-1,1.0,0.5220020000006116
930,11,0.5,0.0625,35.0,1,1.0,0.33550100000002203
931,11,0.5,1.0,-35.0,-1,1.0,0.30880200000001423
932,11,0.5,0.25,-35.0,-1,1.0,0.7156019999997625
933,11,0.5,0.25,-35.0,-1,1.0,0.44590100000004895
934,11,0.5,0.25,-35.0,-1,1.0,2.9257010000001173
935,11,0.5,0.125,-35.0,-1,1.0,0.349402000000282
936,11,0.5,0.0625,35.0,1,1.0,0.3760010000000875
937,11,0.5,1.0,-35.0,-1,1.0,0.33940100000063467
938,11,0.5,0.0625,-35.0,-1,1.0,6.716102000000319
939,11,0.5,0.125,35.0,1,1.0,0.23640100000011444
940,11,0.5,0.25,-35.0,-1,1.0,0.7965020000001459
941,11,0.5,0.0625,-35.0,-1,1.0,2.546602000000348
942,11,0.5,0.0625,-35.0,-1,1.0,0.3734010000002854
943,11,0.5,0.25,-35.0,1,0.0,0.7702010000002701
944,11,0.5,0.0625,-35.0,1,0.0,0.6536020000003191
945,11,0.5,0.25,-35.0,-1,1.0,4.8438020000003235
946,11,0.5,1.0,-35.0,-1,1.0,3.9207020000003467
947,11,0.5,0.125,35.0,1,1.0,0.3274019999998927
948,11,0.5,0.125,-35.0,-1,1.0,11.54790200000025
949,11,0.5,0.0625,-35.0,-1,1.0,2.978301999999985
950,11,0.5,0.25,-35.0,-1,1.0,0.5018009999998867
951,11,0.5,0.125,35.0,1,1.0,0.32520100000010643
952,11,0.5,0.0625,-35.0,-1,1.0,6.8586010000003625
953,11,0.5,0.0625,-35.0,-1,1.0,2.368901000000733
954,11,0.5,0.125,35.0,1,1.0,0.2889010000003509
955,11,0.5,0.125,35.0,1,1.0,0.3524019999999837
956,11,0.5,0.125,35.0,1,1.0,0.2292010000001028
957,11,0.5,0.25,35.0,1,1.0,0.2326020000000426
958,11,0.5,0.0625,35.0,-1,0.0,2.909402000000682
959,11,0.5,0.0625,35.0,1,1.0,0.17950199999995675
960,11,0.5,1.0,35.0,1,1.0,0.2029019999999946
961,11,0.5,1.0,35.0,1,1.0,0.24630200000001423
962,11,0.5,0.0625,-35.0,-1,1.0,0.46980100000018865
963,11,0.5,0.0625,35.0,1,1.0,0.339701000000332
964,11,0.5,0.25,-35.0,-1,1.0,0.3565020000005461
965,11,0.5,0.25,35.0,1,1.0,0.28660100000024613
966,11,0.5,0.0625,35.0,1,1.0,1.0067020000005868
967,11,0.5,0.125,35.0,1,1.0,0.2835009999998874
968,11,0.5,1.0,35.0,1,1.0,0.1902020000002267
969,11,0.5,0.125,35.0,1,1.0,0.33020100000021557
970,11,0.5,0.0625,35.0,1,1.0,0.4703010000002905
971,11,0.5,0.25,35.0,1,1.0,0.21380200000021432
972,11,0.5,0.25,-35.0,-1,1.0,5.147102000000359
973,11,0.5,0.0625,35.0,-1,0.0,0.3073020000001634
974,11,0.5,0.25,-35.0,-1,1.0,0.3308010000005197
975,11,0.5,1.0,-35.0,-1,1.0,0.30430100000012317
976,11,0.5,1.0,-35.0,-1,1.0,0.2609019999999873
977,11,0.5,0.0,-35.0,-1,1.0,2.374301000000287
978,11,0.5,0.25,35.0,1,1.0,0.31770200000028126
979,11,0.5,1.0,-35.0,-1,1.0,0.24780199999986507
980,11,0.5,0.125,35.0,1,1.0,0.34460200000012264
981,11,0.5,0.125,35.0,-1,0.0,2.4214020000003984
982,11,0.5,0.0625,35.0,-1,0.0,1.038101000000097
983,11,0.5,0.25,35.0,1,1.0,0.25500200000033146
984,11,0.5,0.0625,35.0,1,1.0,0.2850020000000768
985,11,0.5,1.0,-35.0,-1,1.0,0.35840200000029654
986,11,0.5,0.125,-35.0,-1,1.0,1.501901000000089
987,11,0.5,0.25,35.0,1,1.0,0.3452020000004268
988,11,0.5,1.0,-35.0,-1,1.0,0.2852010000001428
989,11,0.5,0.0625,35.0,1,1.0,0.2854010000000926
990,11,0.5,0.25,-35.0,-1,1.0,0.3621020000000499
991,11,0.5,0.25,35.0,1,1.0,0.2188019999998687
992,11,0.5,0.25,-35.0,1,0.0,0.305601999999908
993,11,0.5,0.125,35.0,1,1.0,0.2658020000003489
994,11,0.5,1.0,-35.0,-1,1.0,0.23910100000057355
995,11,0.5,1.0,35.0,1,1.0,0.212601000000177
996,11,0.5,0.125,35.0,1,1.0,0.30930199999966135
997,11,0.5,0.125,35.0,1,1.0,0.2660020000002987
998,11,0.5,0.25,35.0,1,1.0,0.2229010000000926
999,11,0.5,0.125,35.0,1,1.0,0.19280200000048353
1000,11,0.5,0.0,-35.0,-1,1.0,5.139600999999857
1001,11,0.5,0.25,35.0,1,1.0,0.23640200000045297
1002,11,0.5,0.125,35.0,1,1.0,4.030002000000422
1003,11,0.5,0.0,35.0,-1,0.0,3.2568019999998796
1004,11,0.5,0.125,35.0,1,1.0,0.5102010000005066
1005,11,0.5,0.25,35.0,1,1.0,0.27360100000032617
1006,11,0.5,0.125,-35.0,-1,1.0,4.457002000000102
1007,11,0.5,0.125,-35.0,-1,1.0,0.31060100000013335
1008,11,0.5,0.0625,35.0,1,1.0,0.4173020000002907
1009,11,0.5,0.125,-35.0,-1,1.0,0.9040010000003349
1010,11,0.5,1.0,35.0,1,1.0,0.21740100000033635
1011,11,0.5,0.0625,-35.0,-1,1.0,0.44740200000023833
1012,11,0.5,0.0,-35.0,-1,1.0,0.6809010000001763
1013,11,0.5,1.0,35.0,1,1.0,0.1977020000003904
1014,11,0.5,0.0625,-35.0,1,0.0,0.5279009999999289
1015,11,0.5,0.0625,-35.0,-1,1.0,0.33450200000015684
1016,11,0.5,1.0,35.0,1,1.0,0.22790200000054028
1017,11,0.5,0.125,-35.0,-1,1.0,0.3046019999997043
1018,11,0.5,0.0625,35.0,1,1.0,0.28150200000027326
1019,11,0.5,0.0625,35.0,1,1.0,0.7981009999998605
1020,11,0.5,0.125,-35.0,-1,1.0,0.4182020000002922
1021,11,0.5,0.25,-35.0,-1,1.0,0.4152020000005905
1022,11,0.5,0.0625,-35.0,-1,1.0,0.4717020000002776
1023,11,0.5,0.25,-35.0,-1,1.0,0.2685010000004695
1024,11,0.5,0.125,35.0,1,1.0,0.17850099999986924
1025,11,0.5,0.25,35.0,1,1.0,0.28520200000048135
1026,11,0.5,1.0,35.0,1,1.0,0.26860200000055556
1027,11,0.5,1.0,-35.0,-1,1.0,0.36540199999990364
1028,11,0.5,0.25,-35.0,-1,1.0,1.9222020000001976
1029,11,0.5,0.25,35.0,1,1.0,0.2690010000001166
1030,11,0.5,0.0625,35.0,-1,0.0,3.2956020000001445
1031,11,0.4,0.0625,35.0,1,1.0,0.4259020000004057
1032,11,0.5,1.0,-35.0,-1,1.0,0.4159020000001874
1033,11,0.5,0.0,35.0,1,1.0,0.47590100000024904
1034,11,0.5,0.25,-35.0,-1,1.0,0.39940200000000914
1035,11,0.5,0.0,-35.0,-1,1.0,0.2927010000003065
1036,11,0.5,0.0625,-35.0,1,0.0,0.18950200000017503
1037,11,0.5,0.25,35.0,1,1.0,0.3129010000006929
1038,11,0.5,0.125,-35.0,-1,1.0,0.3331020000000535
1039,11,0.5,1.0,35.0,1,1.0,0.22310200000038094
1040,11,0.5,0.125,-35.0,-1,1.0,0.4232020000004013
1041,11,0.5,1.0,35.0,1,1.0,0.20330100000046514
1042,11,0.5,0.0625,35.0,1,1.0,0.2899020000004384
1043,11,0.5,0.0625,-35.0,-1,1.0,3.8601010000002134
1044,11,0.5,0.25,35.0,1,1.0,0.27360100000032617
1045,11,0.5,0.0,35.0,-1,0.0,0.4537020000002485
1046,11,0.5,0.25,-35.0,-1,1.0,0.17710200000010445
1047,11,0.5,1.0,-35.0,-1,1.0,0.2437009999998736
1048,11,0.5,0.0625,-35.0,-1,1.0,7.040502000000288
1049,11,0.5,0.0,-35.0,-1,1.0,0.357401000000209
1050,11,0.5,0.125,35.0,1,1.0,0.28090200000042387
1051,11,0.5,0.0,35.0,-1,0.0,0.2943020000002434
1052,11,0.3,0.0,35.0,-1,0.0,2.24780200000032
1053,11,0.5,1.0,35.0,1,1.0,0.26130200000034165
1054,11,0.5,0.125,-35.0,-1,1.0,0.28460200000063196
1055,11,0.5,0.25,35.0,1,1.0,0.2580009999996946
1056,11,0.5,0.0,35.0,-1,0.0,5.1182010000002265
1057,11,0.5,0.125,-35.0,1,0.0,0.29170200000044133
1058,11,0.4,0.125,35.0,1,1.0,0.25200200000017503
1059,11,0.5,1.0,-35.0,-1,1.0,1.1787010000002738
1060,11,0.5,0.25,35.0,1,1.0,0.3688010000000759
1061,11,0.5,0.25,-35.0,-1,1.0,0.26560200000039913
1062,11,0.5,0.25,-35.0,-1,1.0,0.09230200000001787
1063,11,0.5,0.0,35.0,-1,0.0,0.6023020000002361
1064,11,0.4,0.0,-35.0,-1,1.0,6.7125019999998585
1065,11,0.5,1.0,35.0,1,1.0,0.35600200000044424
1066,11,0.5,1.0,-35.0,-1,1.0,0.28270199999997203
1067,11,0.5,1.0,-35.0,-1,1.0,0.24940100000048915
1068,11,0.5,0.25,35.0,1,1.0,0.08290200000010373
1069,11,0.5,0.0,35.0,1,1.0,1.0896010000001297
1070,11,0.5,0.0625,-35.0,-1,1.0,0.9031020000002172
1071,11,0.5,0.25,-35.0,-1,1.0,0.313202000000274
1072,11,0.5,0.0625,-35.0,1,0.0,2.633201000000554
1073,11,0.4,0.0625,35.0,-1,0.0,0.3834010000005037
1074,11,0.5,1.0,-35.0,-1,1.0,0.2867020000003322
1075,11,0.5,0.25,35.0,1,1.0,0.4435020000005352
1076,11,0.5,0.125,35.0,1,1.0,6.627002000000175
1077,11,0.5,0.125,-35.0,-1,1.0,0.1938020000002325
1078,11,0.5,0.125,35.0,1,1.0,0.45060100000046077
1079,11,0.5,0.25,35.0,1,1.0,0.2240010000004986
1080,11,0.5,0.25,-35.0,-1,1.0,0.27070199999980105
1081,11,0.5,1.0,-35.0,-1,1.0,0.40750200000002224
1082,11,0.5,0.125,-35.0,-1,1.0,2.764201999999841
1083,11,0.5,1.0,-35.0,-1,1.0,0.2877020000005359
1084,11,0.5,0.125,35.0,-1,0.0,2.92770100000007
1085,11,0.4,0.125,35.0,1,1.0,0.23460199999999531
1086,11,0.5,1.0,35.0,1,1.0,0.2513010000002396
1087,11,0.5,0.25,-35.0,-1,1.0,4.318102000000181
1088,11,0.5,0.125,-35.0,-1,1.0,0.8816020000003846
1089,11,0.5,0.0625,-35.0,-1,1.0,2.548501000000215
1090,11,0.5,0.0,35.0,-1,0.0,2.071902000000591
1091,11,0.5,0.25,-35.0,-1,1.0,0.2953010000001086
1092,11,0.5,0.0,35.0,-1,0.0,0.42880200000035984
1093,11,0.5,0.0,-35.0,-1,1.0,4.868801000000076
1094,11,0.5,0.0625,-35.0,-1,1.0,7.722402000000329
1095,11,0.5,1.0,-35.0,-1,1.0,0.30600200000026234
1096,11,0.5,0.0625,-35.0,1,0.0,0.45950100000027305
1097,11,0.5,0.25,35.0,1,1.0,0.36280200000010154
1098,11,0.5,0.125,35.0,1,1.0,0.36630200000035984
1099,11,0.5,1.0,35.0,1,1.0,0.2563020000002325
1100,11,0.5,0.0625,-35.0,-1,1.0,4.919701000000259
1101,11,0.5,0.0,35.0,1,1.0,4.9799010000001545
1102,11,0.5,0.0,-35.0,1,0.0,3.836801000000378
1103,11,0.5,0.125,-35.0,-1,1.0,0.33030200000030163
1104,11,0.5,0.0625,-35.0,-1,1.0,4.970401000000493
1105,11,0.5,0.25,-35.0,-1,1.0,7.967301000000134
1106,11,0.5,1.0,-35.0,-1,1.0,0.6775010000001203
1107,11,0.5,0.25,35.0,1,1.0,0.30760200000031546
1108,11,0.5,0.25,-35.0,-1,1.0,3.9810010000001057
1109,11,0.5,0.25,-35.0,-1,1.0,2.867902000000413
1110,11,0.5,0.25,-35.0,-1,1.0,4.188102000000072
1111,11,0.5,0.25,35.0,1,1.0,0.23490200000014738
1112,11,0.5,0.0,35.0,1,1.0,2.1383010000004106
1113,11,0.5,1.0,35.0,1,1.0,0.2785020000001168
1114,11,0.5,0.25,35.0,1,1.0,0.45850200000040786
1115,11,0.5,1.0,-35.0,-1,1.0,0.7752020000002631
1116,11,0.5,1.0,35.0,1,1.0,0.30860200000006444
1117,11,0.5,0.125,35.0,1,1.0,0.22870199999988472
1118,11,0.5,0.125,-35.0,1,0.0,0.3788020000006327
1119,11,0.5,0.0625,35.0,1,1.0,0.45890100000042366
1,12,0.5,0.25,35.0,1,1.0,0.21359999999999912
2,12,0.5,0.125,-35.0,-1,1.0,0.35840099999999975
3,12,0.5,1.0,35.0,1,1.0,0.148200000000001
4,12,0.5,0.25,35.0,1,1.0,0.16780100000000076
5,12,0.5,0.0625,-35.0,-1,1.0,0.10040000000000404
6,12,0.5,0.0625,35.0,1,1.0,0.2012000000000036
7,12,0.5,0.0625,35.0,1,1.0,0.1865009999999998
8,12,0.5,1.0,-35.0,1,0.0,0.1811000000000007
9,12,0.8,1.0,35.0,1,1.0,0.2081009999999992
10,12,0.5,1.0,-35.0,1,0.0,0.19550100000000015
11,12,0.5,0.0625,35.0,1,1.0,0.4113010000000017
12,12,0.5,1.0,-35.0,-1,1.0,0.3540999999999954
13,12,0.5,1.0,-35.0,-1,1.0,0.2839999999999989
14,12,0.5,1.0,-35.0,-1,1.0,0.24730100000000022
15,12,0.5,0.0,-35.0,-1,1.0,1.8169010000000014
16,12,0.5,0.25,35.0,1,1.0,0.22739999999998872
17,12,0.5,0.0,35.0,-1,0.0,0.42789999999999395
18,12,0.5,0.0625,35.0,1,1.0,0.4860999999999933
19,12,0.5,0.125,-35.0,1,0.0,0.3415999999999997
20,12,0.5,0.125,-35.0,-1,1.0,0.15920099999999593
21,12,0.5,1.0,35.0,1,1.0,0.16989999999999839
22,12,0.5,0.125,-35.0,-1,1.0,0.40530099999999436
23,12,0.5,0.125,-35.0,-1,1.0,0.30190100000000086
24,12,0.5,0.25,35.0,1,1.0,0.20020000000000948
25,12,0.5,1.0,-35.0,-1,1.0,0.32560000000000855
26,12,0.5,0.25,35.0,1,1.0,0.2941009999999977
27,12,0.5,1.0,35.0,1,1.0,0.2064009999999996
28,12,0.5,0.25,-35.0,-1,1.0,0.22320000000000562
29,12,0.5,0.0625,-35.0,1,0.0,0.2485009999999903
30,12,0.5,0.0625,35.0,1,1.0,1.4498000000000104
31,12,0.5,1.0,-35.0,-1,1.0,0.2876009999999951
32,12,0.5,0.0625,35.0,1,1.0,0.2221010000000092
33,12,0.5,0.125,35.0,1,1.0,0.22810100000000944
34,12,0.5,1.0,-35.0,-1,1.0,0.45250099999999804
35,12,0.5,0.25,-35.0,-1,1.0,0.2658000000000129
36,12,0.5,1.0,35.0,1,1.0,0.07289999999997576
37,12,0.5,0.25,-35.0,1,0.0,0.31119999999998527
38,12,0.5,0.0625,-35.0,1,0.0,0.20959999999996626
39,12,0.5,0.25,35.0,1,1.0,0.2589009999999803
40,12,0.5,1.0,-35.0,-1,1.0,0.23110099999996692
41,12,0.5,0.25,35.0,1,1.0,0.2519009999999753
42,12,0.5,0.25,35.0,1,1.0,0.3085000000000093
43,12,0.5,0.125,-35.0,-1,1.0,0.242999999999995
44,12,0.5,0.125,-35.0,-1,1.0,0.31759999999999877
45,12,0.5,0.125,-35.0,-1,1.0,0.4032999999999731
46,12,0.5,0.0625,35.0,1,1.0,0.2799999999999727
47,12,0.5,1.0,35.0,1,1.0,0.14459999999999695
48,12,0.5,0.0625,35.0,-1,0.0,1.6047010000000057
49,12,0.5,0.125,-35.0,-1,1.0,0.3535009999999943
50,12,0.5,0.0625,-35.0,-1,1.0,0.2551009999999678
51,12,0.5,1.0,-35.0,-1,1.0,0.20659999999998035
52,12,0.5,0.0625,35.0,1,1.0,0.2407999999999788
53,12,0.5,0.125,-35.0,1,0.0,0.2504999999999882
54,12,0.5,0.125,35.0,1,1.0,0.2653009999999938
55,12,0.5,0.0,-35.0,1,0.0,0.4438999999999851
56,12,0.5,0.0625,35.0,1,1.0,0.21290099999998802
57,12,0.5,0.0625,35.0,1,1.0,0.2912009999999725
58,12,0.5,0.0,35.0,1,1.0,0.21989999999999554
59,12,0.5,0.25,35.0,1,1.0,0.20129999999997494
60,12,0.5,1.0,-35.0,1,0.0,0.19110099999997487
61,12,0.5,0.125,-35.0,1,0.0,0.17429999999998813
62,12,0.5,0.125,-35.0,-1,1.0,0.36080100000000925
63,12,0.5,0.0,35.0,1,1.0,0.3995999999999924
64,12,0.5,0.125,-35.0,-1,1.0,0.3211000000000013
65,12,0.5,0.0625,-35.0,-1,1.0,0.3182009999999593
66,12,0.5,1.0,-35.0,-1,1.0,0.24690099999997983
67,12,0.5,0.0625,-35.0,1,0.0,0.28239999999999554
68,12,0.5,0.25,-35.0,-1,1.0,0.3598999999999819
69,12,0.5,0.0625,35.0,1,1.0,0.42449999999999477
70,12,0.5,1.0,-35.0,-1,1.0,0.37250099999999975
71,12,0.5,0.125,-35.0,1,0.0,0.5962999999999852
72,12,0.4,0.125,-35.0,1,0.0,0.3266009999999824
73,12,0.5,1.0,-35.0,-1,1.0,0.259900000000016
74,12,0.5,0.0,35.0,1,1.0,0.23090100000001712
75,12,0.5,0.0625,-35.0,-1,1.0,0.5689009999999826
76,12,0.5,0.25,-35.0,-1,1.0,0.2687999999999988
77,12,0.5,0.0625,-35.0,1,0.0,0.2326999999999657
78,12,0.5,0.0,-35.0,-1,1.0,0.4063009999999849
79,12,0.5,0.0,35.0,-1,0.0,0.2979010000000244
80,12,0.5,0.0625,35.0,1,1.0,0.3668999999999869
81,12,0.5,1.0,35.0,1,1.0,0.2038000000000011
82,12,0.5,0.0625,35.0,1,1.0,0.4035999999999831
83,12,0.5,0.125,-35.0,-1,1.0,0.316599999999994
84,12,0.5,0.25,-35.0,-1,1.0,1.227700000000027
85,12,0.5,0.125,-35.0,-1,1.0,0.8462010000000078
86,12,0.5,0.25,35.0,1,1.0,0.21019999999998618
87,12,0.5,1.0,-35.0,-1,1.0,0.2827010000000314
88,12,0.5,0.0625,35.0,1,1.0,0.2670009999999934
89,12,0.5,0.25,-35.0,-1,1.0,0.369199999999978
90,12,0.5,0.125,35.0,1,1.0,2.530399999999986
91,12,0.5,0.25,-35.0,-1,1.0,0.5241009999999733
92,12,0.5,0.125,-35.0,-1,1.0,0.39880099999999175
93,12,0.5,0.125,-35.0,-1,1.0,0.32740100000000893
94,12,0.5,0.0625,35.0,1,1.0,0.19680099999999356
95,12,0.5,1.0,-35.0,-1,1.0,0.32080099999996037
96,12,0.5,0.25,-35.0,-1,1.0,0.25679999999999836
97,12,0.5,0.0625,35.0,1,1.0,0.2540010000000166
98,12,0.5,0.0625,-35.0,-1,1.0,0.28640000000001464
99,12,0.5,0.25,-35.0,-1,1.0,0.2639009999999189
100,12,0.5,0.0625,-35.0,-1,1.0,0.7284000000000219
101,12,0.5,0.0625,35.0,-1,0.0,0.3216009999999869
102,12,0.5,0.0,35.0,1,1.0,0.261099999999999
103,12,0.5,0.125,-35.0,1,0.0,0.2104009999999903
104,12,0.5,0.25,35.0,1,1.0,0.22060099999998783
105,12,0.5,0.0625,-35.0,1,0.0,0.21439999999995507
106,12,0.5,0.0625,35.0,1,1.0,0.25910100000004377
107,12,0.5,1.0,35.0,1,1.0,0.17399999999997817
108,12,0.5,1.0,35.0,1,1.0,0.1633999999999105
109,12,0.5,0.0,-35.0,1,0.0,0.18560100000001967
110,12,0.5,0.0625,-35.0,1,0.0,0.26789999999999736
111,12,0.5,0.0625,35.0,1,1.0,0.2214010000000144
112,12,0.5,0.25,35.0,1,1.0,0.19950099999999793
113,12,0.5,0.0625,-35.0,1,0.0,0.6795010000000161
114,12,1.0,0.0625,-35.0,-1,1.0,1.531599999999969
115,12,0.5,1.0,-35.0,-1,1.0,0.23590100000001257
116,12,0.5,0.125,35.0,1,1.0,0.2597999999999274
117,12,0.5,0.0625,35.0,-1,0.0,0.3007000000000062
118,12,0.5,0.0,35.0,1,1.0,0.40880099999998265
119,12,0.5,0.125,-35.0,-1,1.0,0.2012009999999691
120,12,0.5,1.0,-35.0,-1,1.0,0.21800000000001774
121,12,0.5,1.0,-35.0,-1,1.0,0.25950000000000273
122,12,0.5,0.25,35.0,1,1.0,0.22350099999999884
123,12,0.5,1.0,35.0,1,1.0,0.2527010000000587
124,12,0.5,1.0,35.0,1,1.0,0.1702009999999632
125,12,0.5,0.0625,-35.0,-1,1.0,0.269299999999987
126,12,0.5,0.0625,35.0,-1,0.0,0.47520099999997
127,12,0.5,0.0625,-35.0,1,0.0,0.2625009999999861
128,12,0.5,0.0625,35.0,1,1.0,0.27769999999998163
129,12,0.5,1.0,35.0,1,1.0,0.18210099999998874
130,12,0.5,0.25,-35.0,-1,1.0,0.23770100000001548
131,12,0.5,0.125,35.0,1,1.0,0.40930100000002767
132,12,0.5,0.25,35.0,1,1.0,0.2189999999999941
133,12,0.5,1.0,-35.0,-1,1.0,0.5616000000000554
134,12,0.5,0.0625,-35.0,-1,1.0,1.1641010000000165
135,12,0.5,1.0,-35.0,-1,1.0,0.260200999999995
136,12,0.5,0.25,35.0,1,1.0,0.19570099999998547
137,12,0.5,1.0,35.0,1,1.0,0.19720100000000684
138,12,0.5,0.0625,35.0,1,1.0,0.23820000000000618
139,12,0.5,1.0,-35.0,-1,1.0,0.2821999999999889
140,12,0.5,0.25,-35.0,-1,1.0,0.4698010000000181
141,12,0.5,0.0625,-35.0,1,0.0,0.1818010000000072
142,12,0.5,0.0625,-35.0,1,0.0,0.6221999999999639
143,12,0.5,0.125,35.0,1,1.0,0.2224009999999339
144,12,0.5,1.0,35.0,1,1.0,0.1823999999999728
145,12,0.5,0.25,35.0,1,1.0,0.23230100000000675
146,12,0.5,0.0,35.0,-1,0.0,0.32340099999998984
147,12,0.5,0.0625,-35.0,1,0.0,0.42020100000002003
148,12,0.7,0.0625,35.0,1,1.0,0.30349999999998545
149,12,0.5,1.0,35.0,1,1.0,0.16090100000008078
150,12,0.5,0.125,35.0,1,1.0,0.1791000000000622
151,12,0.5,0.125,35.0,1,1.0,0.12100000000009459
152,12,0.5,1.0,35.0,1,1.0,0.18130100000007587
153,12,0.5,1.0,35.0,1,1.0,0.171100000000024
154,12,0.5,0.0,35.0,1,1.0,0.18489999999997053
155,12,0.5,0.125,-35.0,1,0.0,0.12140099999999165
156,12,0.5,0.25,-35.0,1,0.0,0.2007010000000946
157,12,0.5,0.125,35.0,1,1.0,0.24680000000012114
158,12,0.5,0.25,35.0,1,1.0,0.046101000000021486
159,12,0.5,1.0,-35.0,-1,1.0,0.2682000000000926
160,12,0.5,1.0,-35.0,-1,1.0,0.32070099999998547
161,12,0.5,0.25,-35.0,-1,1.0,0.7628009999999676
162,12,0.5,0.25,-35.0,-1,1.0,0.41320100000018556
163,12,0.5,0.125,-35.0,-1,1.0,0.23910100000000511
164,12,0.5,0.0,-35.0,1,0.0,0.27810100000010607
165,12,0.5,0.125,-35.0,1,0.0,0.2571010000000342
166,12,0.5,0.0,-35.0,-1,1.0,0.07040099999994709
167,12,0.5,0.125,35.0,1,1.0,0.2989000000000033
168,12,0.5,0.25,-35.0,-1,1.0,0.3277000000001635
169,12,0.5,1.0,35.0,1,1.0,0.15390100000001894
170,12,0.5,0.125,35.0,1,1.0,0.26230099999997947
171,12,0.5,1.0,-35.0,-1,1.0,0.39960000000007767
172,12,0.5,0.0625,-35.0,1,0.0,0.18550000000016098
173,12,0.5,0.25,35.0,1,1.0,0.24170100000003458
174,12,0.5,0.125,-35.0,1,0.0,0.19260000000008404
175,12,0.5,0.125,-35.0,-1,1.0,0.31490000000019336
176,12,0.5,0.0,35.0,-1,0.0,0.26320000000009713
177,12,0.6,0.0,-35.0,1,0.0,0.46010100000012244
178,12,0.5,1.0,-35.0,-1,1.0,0.24660000000005766
179,12,0.5,1.0,35.0,1,1.0,0.18220100000007733
180,12,0.5,0.0625,35.0,1,1.0,0.4653000000000702
181,12,0.5,1.0,-35.0,-1,1.0,0.2692010000000664
182,12,0.5,0.0625,35.0,1,1.0,0.253400000000056
183,12,0.5,1.0,-35.0,-1,1.0,0.21600099999989197
184,12,0.5,0.0,-35.0,1,0.0,0.2254010000000335
185,12,0.5,0.0,-35.0,1,0.0,0.23200099999996837
186,12,0.5,1.0,35.0,1,1.0,0.17439999999999145
187,12,0.5,0.0625,-35.0,-1,1.0,0.32890100000008715
188,12,0.5,0.0625,35.0,1,1.0,0.5073999999999614
189,12,0.5,0.25,35.0,1,1.0,0.19030099999997674
190,12,0.5,0.125,-35.0,1,0.0,0.20220100000005914
191,12,0.5,0.0,-35.0,-1,1.0,0.45070000000009713
192,12,0.5,1.0,-35.0,-1,1.0,0.22800000000006548
193,12,0.5,0.25,35.0,1,1.0,0.2112010000000737
194,12,0.5,0.25,-35.0,-1,1.0,0.23820000000000618
195,12,0.5,0.25,-35.0,-1,1.0,0.926001000000042
196,12,0.5,0.0625,35.0,-1,0.0,0.2772009999999909
197,12,0.4,0.0625,35.0,-1,0.0,0.22100000000011732
198,12,0.5,1.0,35.0,1,1.0,0.18829999999991287
199,12,0.5,0.0625,35.0,1,1.0,0.2838010000000395
200,12,0.5,0.125,-35.0,-1,1.0,0.3119000000000369
201,12,0.5,0.0625,35.0,1,1.0,0.2156000000001086
202,12,0.5,0.125,-35.0,-1,1.0,0.4777010000000246
203,12,0.5,1.0,-35.0,-1,1.0,0.2857000000000198
204,12,0.5,0.0625,-35.0,-1,1.0,2.660900999999967
205,12,0.5,1.0,35.0,1,1.0,0.30500100000006114
206,12,0.5,0.0625,-35.0,-1,1.0,0.22630100000003495
207,12,0.5,0.0,-35.0,1,0.0,0.21069999999997435
208,12,0.5,0.0,-35.0,-1,1.0,0.29510000000004766
209,12,0.5,1.0,35.0,1,1.0,0.17450000000008004
210,12,0.5,1.0,35.0,1,1.0,0.21610100000009425
211,12,0.5,1.0,35.0,1,1.0,0.1852010000000064
212,12,0.5,1.0,35.0,1,1.0,0.16980100000000675
213,12,0.5,1.0,35.0,1,1.0,0.1727010000000746
214,12,0.5,0.0625,35.0,1,1.0,0.21570099999996728
215,12,0.5,1.0,-35.0,1,0.0,0.076300999999944
216,12,0.5,0.125,-35.0,-1,1.0,0.20840199999997822
217,12,0.5,0.0,35.0,-1,0.0,0.24160200000005716
218,12,0.5,0.0625,-35.0,-1,1.0,1.5869010000000117
219,12,0.5,1.0,35.0,1,1.0,0.16530199999999695
220,12,0.5,0.0625,35.0,1,1.0,0.3040010000000848
221,12,0.5,0.0625,35.0,-1,0.0,0.6356020000000626
222,12,0.5,0.0625,35.0,1,1.0,0.17250100000001112
223,12,0.5,0.125,-35.0,-1,1.0,0.28380200000003697
224,12,0.5,0.0625,-35.0,1,0.0,0.17760099999998147
225,12,0.5,0.125,35.0,-1,0.0,0.30270200000006753
226,12,0.5,0.25,-35.0,-1,1.0,0.22750199999995857
227,12,0.5,0.25,-35.0,-1,1.0,0.2770020000000386
228,12,0.5,0.25,35.0,1,1.0,0.2692020000000639
229,12,0.5,0.125,35.0,1,1.0,0.3294019999999591
230,12,0.5,0.125,35.0,1,1.0,0.23130100000014409
231,12,0.5,1.0,35.0,1,1.0,0.2091010000001461
232,12,0.5,0.125,-35.0,-1,1.0,0.2250010000001339
233,12,0.5,0.125,35.0,1,1.0,0.1990009999999529
234,12,0.5,0.125,-35.0,1,0.0,0.6255020000000968
235,12,0.5,0.0,-35.0,1,0.0,0.22960199999999986
236,12,0.7,0.0,-35.0,1,0.0,0.2693009999999276
237,12,0.5,1.0,35.0,-1,0.0,0.01940100000001621
238,12,0.5,0.0,35.0,-1,0.0,0.49400100000002567
239,12,0.5,0.0,35.0,1,1.0,0.6261020000000599
240,12,0.5,1.0,35.0,1,1.0,0.1501019999999471
241,12,0.5,1.0,35.0,1,1.0,0.2773010000000795
242,12,0.5,0.25,35.0,1,1.0,0.1522020000001021
243,12,0.5,0.125,35.0,1,1.0,0.15750100000002476
244,12,0.5,0.125,-35.0,1,0.0,0.19170200000007753
245,12,0.8,0.125,-35.0,1,0.0,0.1608010000001059
246,12,0.5,1.0,-35.0,-1,1.0,0.29850199999998495
247,12,0.5,0.25,35.0,1,1.0,0.17740200000014283
248,12,0.5,0.125,35.0,1,1.0,0.25760200000001987
249,12,0.5,0.0625,-35.0,1,0.0,0.19990099999995437
250,12,0.9,0.0625,-35.0,-1,1.0,0.490901000000008
251,12,0.5,1.0,-35.0,-1,1.0,0.3078010000000404
252,12,0.5,1.0,35.0,1,1.0,0.1762019999999893
253,12,0.5,0.0625,35.0,-1,0.0,0.45770200000015393
254,12,0.6,0.0625,35.0,1,1.0,0.5281020000001035
255,12,0.5,1.0,-35.0,-1,1.0,0.2814010000000735
256,12,0.5,0.0625,-35.0,-1,1.0,0.2855019999999513
257,12,0.5,0.0625,-35.0,1,0.0,0.16480200000000877
258,12,0.5,0.25,35.0,1,1.0,0.21780100000000857
259,12,0.5,1.0,-35.0,-1,1.0,0.22910200000001169
260,12,0.5,0.0625,-35.0,-1,1.0,0.3264010000000326
261,12,0.5,0.125,35.0,1,1.0,0.30660200000011173
262,12,0.5,1.0,-35.0,-1,1.0,0.21860100000003513
263,12,0.5,0.0,35.0,1,1.0,0.22510199999999259
264,12,0.5,0.125,-35.0,-1,1.0,0.2835010000000011
265,12,0.5,0.0625,-35.0,-1,1.0,0.3270020000001068
266,12,0.5,1.0,35.0,1,1.0,0.21180200000003424
267,12,0.5,0.125,35.0,1,1.0,0.2890020000000959
268,12,0.5,0.125,35.0,1,1.0,0.21030100000007224
269,12,0.5,0.0,-35.0,1,0.0,0.30500199999994493
270,12,0.5,0.125,-35.0,-1,1.0,0.2430020000000468
271,12,0.5,1.0,-35.0,-1,1.0,0.22050100000001294
272,12,0.5,0.0625,35.0,1,1.0,0.4802020000001903
273,12,0.5,0.0625,35.0,-1,0.0,0.37380099999995764
274,12,0.5,0.0,-35.0,1,0.0,0.44010100000002694
275,12,0.5,0.25,35.0,1,1.0,0.19510200000001987
276,12,0.5,0.0625,-35.0,-1,1.0,0.345602000000099
277,12,0.5,0.0,35.0,1,1.0,4.2928020000000515
278,12,0.5,0.0,-35.0,-1,1.0,0.277302000000077
279,12,0.5,1.0,-35.0,-1,1.0,0.24710200000015448
280,12,0.5,0.25,-35.0,-1,1.0,0.3764019999999846
281,12,0.5,0.125,-35.0,-1,1.0,0.30390200000010736
282,12,0.5,0.25,-35.0,-1,1.0,0.1724020000000337
283,12,0.5,1.0,35.0,1,1.0,0.18030099999998583
284,12,0.5,0.0625,35.0,-1,0.0,0.236302000000137
285,12,0.5,0.125,35.0,-1,0.0,0.24120200000004388
286,12,0.2,0.125,35.0,1,1.0,0.2895020000000841
287,12,0.5,1.0,-35.0,-1,1.0,0.21400100000005295
288,12,0.5,0.125,-35.0,-1,1.0,0.2513020000000097
289,12,0.5,0.0,35.0,-1,0.0,0.2875020000000177
290,12,0.5,0.0625,35.0,-1,0.0,0.26460100000008424
291,12,0.2,0.0625,35.0,1,1.0,0.22770100000002458
292,12,0.5,1.0,35.0,1,1.0,0.1710010000000466
293,12,0.5,0.0,-35.0,1,0.0,0.17830100000014681
294,12,0.5,0.0,35.0,1,1.0,0.28120100000001
295,12,0.5,0.25,-35.0,-1,1.0,0.29150200000026416
296,12,0.5,1.0,-35.0,-1,1.0,0.21830199999999422
297,12,0.5,1.0,-35.0,-1,1.0,0.2285020000001623
298,12,0.5,0.0,35.0,-1,0.0,0.41180199999985234
299,12,0.5,0.0625,-35.0,-1,1.0,0.22530100000017228
300,12,0.5,0.25,35.0,1,1.0,0.24230100000022503
301,12,0.5,0.0,-35.0,-1,1.0,3.4755019999997785
302,12,0.5,0.0625,35.0,1,1.0,0.22550100000012208
303,12,0.5,0.125,35.0,1,1.0,0.1323019999999815
304,12,0.5,0.25,35.0,1,1.0,0.20930100000009588
305,12,0.5,0.125,35.0,1,1.0,0.16920199999981378
306,12,0.5,0.0625,35.0,1,1.0,0.2426020000000335
307,12,0.5,0.25,35.0,1,1.0,0.16660200000001169
308,12,0.5,0.25,-35.0,-1,1.0,0.3035010000000966
309,12,0.5,0.0625,-35.0,-1,1.0,0.30300099999999475
310,12,0.5,0.0625,-35.0,-1,1.0,0.4398020000000997
311,12,0.5,1.0,-35.0,-1,1.0,0.2931010000002061
312,12,0.5,0.25,35.0,1,1.0,0.1603010000001177
313,12,0.5,0.25,-35.0,-1,1.0,0.4266020000000026
314,12,0.5,0.125,-35.0,1,0.0,0.10080100000004677
315,12,0.5,0.125,35.0,1,1.0,0.23410100000000966
316,12,0.5,1.0,-35.0,-1,1.0,0.2672019999999975
317,12,0.5,0.125,35.0,1,1.0,0.15690200000017285
318,12,0.5,0.0625,-35.0,1,0.0,2.08070100000009
319,12,0.5,0.0625,35.0,1,1.0,0.2510019999999713
320,12,0.5,1.0,-35.0,-1,1.0,0.23430200000007062
321,12,0.5,1.0,-35.0,-1,1.0,0.26440100000013445
322,12,0.5,0.125,-35.0,-1,1.0,0.3543019999999615
323,12,0.5,1.0,-35.0,-1,1.0,0.21780199999989236
324,12,0.5,0.25,-35.0,-1,1.0,0.3145009999998365
325,12,0.5,0.0625,-35.0,-1,1.0,0.2980009999998856
326,12,0.5,0.125,35.0,1,1.0,0.27800100000013117
327,12,0.5,0.25,-35.0,-1,1.0,0.1983020000000124
328,12,0.5,1.0,-35.0,-1,1.0,0.26150200000006407
329,12,0.5,0.0625,-35.0,1,0.0,0.1619020000000546
330,12,0.2,0.0625,-35.0,-1,1.0,0.13500199999998586
331,12,0.5,1.0,35.0,1,1.0,0.1785019999999804
332,12,0.5,1.0,-35.0,-1,1.0,0.20860100000004422
333,12,0.5,0.125,-35.0,-1,1.0,0.5458020000000943
334,12,0.5,0.25,35.0,1,1.0,-0.0675989999997455
335,12,0.5,0.125,35.0,1,1.0,0.14890199999990728
336,12,0.5,0.0625,-35.0,-1,1.0,0.29900099999986196
337,12,0.5,0.25,-35.0,-1,1.0,0.40310100000010607
338,12,0.5,1.0,-35.0,-1,1.0,0.24260099999992235
339,12,0.5,1.0,-35.0,-1,1.0,0.32910100000003695
340,12,0.5,0.0625,-35.0,-1,1.0,0.4494010000000799
341,12,0.5,0.25,-35.0,-1,1.0,0.29930100000001403
342,12,0.5,0.0,35.0,-1,0.0,0.25660199999992983
343,12,0.5,0.0625,-35.0,1,0.0,0.489701999999852
344,12,0.5,0.125,-35.0,-1,1.0,0.373100999999906
345,12,0.5,0.25,-35.0,-1,1.0,0.2432009999999991
346,12,0.5,0.125,-35.0,-1,1.0,0.4334010000000035
347,12,0.5,1.0,35.0,1,1.0,0.17350200000009863
348,12,0.5,0.125,35.0,1,1.0,0.2170019999998658
349,12,0.5,0.25,-35.0,-1,1.0,0.30040100000019265
350,12,0.5,0.125,35.0,1,1.0,0.1504010000001017
351,12,0.5,0.0625,35.0,1,1.0,0.40370100000018283
352,12,0.5,0.0625,-35.0,-1,1.0,0.1908010000001923
353,12,0.5,0.0625,-35.0,-1,1.0,0.9305010000000493
354,12,0.5,0.125,-35.0,-1,1.0,0.22080099999993763
355,12,0.5,0.25,-35.0,-1,1.0,0.6040009999999256
356,12,0.5,0.25,-35.0,-1,1.0,0.3215010000001257
357,12,0.5,0.125,35.0,1,1.0,0.42160199999989345
358,12,0.5,0.0625,-35.0,-1,1.0,0.30480199999988145
359,12,0.5,0.0625,35.0,-1,0.0,0.46780100000023594
360,12,0.5,0.25,35.0,1,1.0,0.18480199999999058
361,12,0.5,0.125,35.0,1,1.0,0.255102000000079
362,12,0.5,0.125,35.0,1,1.0,0.2653020000000197
363,12,0.5,0.0625,-35.0,1,0.0,0.06160100000010971
364,12,0.5,0.0625,35.0,-1,0.0,0.2487020000000939
365,12,0.5,1.0,35.0,1,1.0,0.19570100000009916
366,12,0.5,0.25,35.0,1,1.0,0.2152009999999791
367,12,0.5,0.25,35.0,1,1.0,0.18550099999993108
368,12,0.5,0.0625,-35.0,-1,1.0,0.2421009999998205
369,12,0.5,1.0,-35.0,-1,1.0,0.22570100000007187
370,12,0.5,0.0625,35.0,1,1.0,0.19610099999999875
371,12,0.5,1.0,-35.0,-1,1.0,0.2526020000000244
372,12,0.5,0.0625,-35.0,-1,1.0,0.9625009999999747
373,12,0.5,0.125,-35.0,-1,1.0,0.31270199999994475
374,12,0.5,0.0625,35.0,1,1.0,0.40610099999980775
375,12,0.5,0.125,35.0,1,1.0,0.2961009999999078
376,12,0.5,1.0,-35.0,-1,1.0,0.1296020000002045
377,12,0.5,0.0625,35.0,1,1.0,0.11960099999987506
378,12,0.5,1.0,-35.0,-1,1.0,0.23050199999988763
379,12,0.5,1.0,-35.0,-1,1.0,0.47650100000009843
380,12,0.5,0.25,35.0,1,1.0,0.20340200000009645
381,12,0.5,0.125,-35.0,-1,1.0,1.4503020000001925
382,12,0.5,1.0,35.0,1,1.0,0.17030099999988124
383,12,0.5,1.0,-35.0,-1,1.0,0.10080199999993056
384,12,0.5,0.25,-35.0,-1,1.0,0.2771010000001297
385,12,0.5,0.25,35.0,1,1.0,0.14400100000011662
386,12,0.5,0.25,-35.0,-1,1.0,0.3109020000001692
387,12,0.5,0.0625,-35.0,-1,1.0,0.32770099999993363
388,12,0.5,0.0625,-35.0,-1,1.0,0.3747009999999591
389,12,0.5,0.125,-35.0,-1,1.0,0.3710009999999784
390,12,0.5,0.0,35.0,-1,0.0,0.2151010000000042
391,12,0.5,0.0625,35.0,1,1.0,0.27460100000007515
392,12,0.5,0.25,35.0,1,1.0,0.2050010000000384
393,12,0.5,0.125,35.0,1,1.0,0.1850010000000566
394,12,0.5,0.0625,-35.0,1,0.0,0.2716010000001461
395,12,0.5,0.125,-35.0,-1,1.0,0.2353009999999358
396,12,0.5,0.0,-35.0,-1,1.0,0.3086009999999533
397,12,0.5,0.0,35.0,-1,0.0,0.26500099999998383
398,12,0.4,0.0,35.0,-1,0.0,0.09520199999997203
399,12,0.5,1.0,-35.0,-1,1.0,0.20220199999994293
400,12,0.5,1.0,-35.0,-1,1.0,0.575601000000006
401,12,0.5,0.25,-35.0,-1,1.0,0.2791010000000824
402,12,0.5,1.0,35.0,1,1.0,0.18240100000002712
403,12,0.5,0.125,35.0,1,1.0,0.22630200000003242
404,12,0.5,0.25,-35.0,1,0.0,0.5929020000000946
405,12,0.3,0.25,35.0,1,1.0,0.23280200000021978
406,12,0.5,1.0,35.0,1,1.0,0.18930199999999786
407,12,0.5,0.0,35.0,-1,0.0,0.25350200000025325
408,12,0.5,0.0625,35.0,1,1.0,0.23350100000016027
409,12,0.5,0.0,-35.0,1,0.0,0.12300199999981487
410,12,0.5,0.125,35.0,1,1.0,0.21990099999993618
411,12,0.5,0.25,35.0,1,1.0,0.19660200000021177
412,12,0.5,1.0,35.0,1,1.0,0.18670200000019577
413,12,0.5,0.0,35.0,1,1.0,0.24340100000017628
414,12,0.5,0.25,-35.0,-1,1.0,0.336900999999898
415,12,0.5,0.25,35.0,1,1.0,0.28020199999991746
416,12,0.5,0.25,35.0,1,1.0,0.18040100000007442
417,12,0.5,0.0625,35.0,1,1.0,0.1041010000001279
418,12,0.5,0.0625,35.0,-1,0.0,0.06080199999996694
419,12,0.8,0.0625,-35.0,1,0.0,0.4011019999998098
420,12,0.5,1.0,-35.0,-1,1.0,0.27430200000003424
421,12,0.5,0.25,-35.0,-1,1.0,0.2814010000001872
422,12,0.5,0.25,-35.0,-1,1.0,0.28480100000001585
423,12,0.5,0.0,-35.0,1,0.0,0.36810099999979684
424,12,0.5,0.25,35.0,1,1.0,0.2146020000000135
425,12,0.5,1.0,35.0,1,1.0,0.23510099999998602
426,12,0.5,0.0,-35.0,1,0.0,1.6723020000001725
427,12,0.5,0.125,-35.0,1,0.0,0.19170099999996637
428,12,0.5,0.25,-35.0,1,0.0,0.18220100000007733
429,12,0.7,0.25,35.0,1,1.0,0.2554020000000037
430,12,0.5,1.0,-35.0,-1,1.0,1.0294010000002345
431,12,0.5,0.125,-35.0,-1,1.0,0.2293010000000777
432,12,0.5,0.125,-35.0,-1,1.0,0.26550200000019686
433,12,0.5,0.0,35.0,-1,0.0,0.8991010000002007
434,12,0.5,0.0,35.0,1,1.0,0.23570199999994657
435,12,0.5,0.0625,35.0,1,1.0,0.2558019999999033
436,12,0.5,0.125,-35.0,-1,1.0,0.48270099999990634
437,12,0.5,0.125,-35.0,-1,1.0,0.302902000000131
438,12,0.5,0.0625,35.0,1,1.0,0.5763009999998303
439,12,0.5,0.0,-35.0,-1,1.0,0.46950100000026396
440,12,0.5,1.0,-35.0,-1,1.0,0.256300999999894
441,12,0.5,0.125,-35.0,-1,1.0,1.0733009999999013
442,12,0.5,1.0,-35.0,-1,1.0,0.29030200000011064
443,12,0.5,1.0,35.0,1,1.0,0.1766010000001188
444,12,0.5,1.0,35.0,1,1.0,0.20690100000024358
445,12,0.5,0.125,35.0,1,1.0,0.24060100000019702
446,12,0.5,1.0,35.0,1,1.0,0.18730100000016137
447,12,0.5,0.0625,-35.0,1,0.0,0.19390199999998003
448,12,0.6,0.0625,-35.0,1,0.0,0.19730200000003606
449,12,0.5,1.0,-35.0,-1,1.0,0.2209020000000237
450,12,0.5,0.25,35.0,1,1.0,0.25730200000020886
451,12,0.5,1.0,35.0,1,1.0,0.19140199999992547
452,12,0.5,0.25,-35.0,1,0.0,0.14820200000031036
453,12,0.5,0.25,-35.0,-1,1.0,0.5678020000000288
454,12,0.5,0.0625,35.0,1,1.0,0.2710020000001805
455,12,0.5,0.25,35.0,1,1.0,0.21430099999997765
456,12,0.5,0.125,35.0,1,1.0,0.18150100000002567
457,12,0.5,0.125,-35.0,-1,1.0,0.29820200000017394
458,12,0.5,1.0,35.0,1,1.0,0.1322010000001228
459,12,0.5,1.0,-35.0,-1,1.0,0.24480099999982485
460,12,0.5,0.125,35.0,1,1.0,0.2215009999999893
461,12,0.5,1.0,-35.0,-1,1.0,0.2287010000002283
462,12,0.5,0.125,35.0,1,1.0,0.6289020000001528
463,12,0.5,1.0,-35.0,-1,1.0,0.2693010000000413
464,12,0.5,0.25,-35.0,-1,1.0,0.3186009999999442
465,12,0.5,0.0,35.0,1,1.0,2.308901999999989
466,12,0.5,0.125,35.0,1,1.0,0.19940100000007988
467,12,0.5,0.0,35.0,1,1.0,0.3826010000000224
468,12,0.5,0.0625,-35.0,-1,1.0,0.7326020000000426
469,12,0.5,0.125,-35.0,1,0.0,0.15600199999994402
470,12,0.5,0.0625,-35.0,-1,1.0,0.36680100000012317
471,12,0.5,1.0,35.0,1,1.0,0.2566020000001572
472,12,0.5,0.25,-35.0,-1,1.0,0.3500010000002476
473,12,0.5,1.0,-35.0,-1,1.0,0.18980099999998856
474,12,0.5,0.25,-35.0,-1,1.0,0.24000200000000405
475,12,0.5,0.125,35.0,1,1.0,0.4202010000001337
476,12,0.5,0.25,-35.0,-1,1.0,0.3300010000000384
477,12,0.5,0.0,-35.0,1,0.0,0.33310099999994236
478,12,0.5,0.0,35.0,1,1.0,0.6441009999998641
479,12,0.5,1.0,35.0,1,1.0,0.12050100000010389
480,12,0.5,0.125,-35.0,-1,1.0,0.26060099999995145
481,12,0.5,0.0,-35.0,1,0.0,2.1974009999999
482,12,0.5,0.125,-35.0,1,0.0,0.4812010000000555
483,12,0.5,0.0625,35.0,-1,0.0,0.184402000000091
484,12,0.5,0.0625,-35.0,-1,1.0,0.27760099999977683
485,12,0.5,0.25,-35.0,-1,1.0,0.1942020000001321
486,12,0.5,1.0,-35.0,-1,1.0,0.24440200000003642
487,12,0.5,0.125,35.0,1,1.0,0.23470200000019759
488,12,0.5,0.0625,35.0,1,1.0,0.35130199999980505
489,12,0.5,0.25,35.0,1,1.0,0.21840199999996912
490,12,0.5,0.25,-35.0,-1,1.0,0.22840100000007624
491,12,0.5,1.0,35.0,1,1.0,0.1883020000000215
492,12,0.5,0.125,35.0,1,1.0,0.23490100000003622
493,12,0.5,0.125,35.0,1,1.0,0.32890199999997094
494,12,0.5,0.25,35.0,1,1.0,0.30920100000003004
495,12,0.5,0.25,-35.0,-1,1.0,0.2356009999998605
496,12,0.5,1.0,-35.0,-1,1.0,0.2260009999997692
497,12,0.5,1.0,-35.0,-1,1.0,0.2292010000001028
498,12,0.5,0.0,35.0,1,1.0,0.7263010000001486
499,12,0.5,0.25,-35.0,-1,1.0,0.23580199999992146
500,12,0.5,0.125,-35.0,-1,1.0,0.22260199999982433
501,12,0.5,0.125,35.0,1,1.0,0.7193019999999706
502,12,0.5,1.0,-35.0,-1,1.0,0.36940100000015264
503,12,0.5,0.125,-35.0,-1,1.0,0.3332020000000284
504,12,0.5,0.0,-35.0,-1,1.0,0.21670200000016848
505,12,0.5,0.25,-35.0,-1,1.0,0.2830010000002403
506,12,0.5,0.25,-35.0,-1,1.0,0.25320099999999
507,12,0.5,0.125,35.0,1,1.0,0.20020199999999022
508,12,0.5,0.0625,35.0,1,1.0,0.6401010000001861
509,12,0.5,1.0,-35.0,-1,1.0,0.32700099999988197
510,12,0.5,0.0625,35.0,1,1.0,0.2537010000000919
511,12,0.5,0.25,35.0,1,1.0,0.2537010000000919
512,12,0.5,0.25,-35.0,-1,1.0,0.20720200000005207
513,12,0.5,0.0625,-35.0,-1,1.0,0.4541020000001481
514,12,0.5,1.0,35.0,1,1.0,0.1707010000000082
515,12,0.5,0.25,-35.0,1,0.0,0.547600999999986
516,12,0.5,0.0625,35.0,1,1.0,0.10110099999997146
517,12,0.5,0.125,-35.0,-1,1.0,0.2612020000001394
518,12,0.5,1.0,35.0,1,1.0,0.17780100000004495
519,12,0.5,0.0,-35.0,-1,1.0,0.25840199999993274
520,12,0.5,0.25,-35.0,-1,1.0,0.20810100000016973
521,12,0.5,0.0,-35.0,1,0.0,0.1681010000002061
522,12,0.5,0.125,35.0,1,1.0,0.26820199999997385
523,12,0.5,0.25,35.0,1,1.0,0.20840199999997822
524,12,0.5,1.0,-35.0,-1,1.0,0.2155009999999038
525,12,0.5,0.0,35.0,-1,0.0,1.5650009999999384
526,12,0.5,0.125,35.0,1,1.0,0.2285020000001623
527,12,0.5,0.0625,-35.0,1,0.0,0.36530100000004495
528,12,0.5,0.0,-35.0,1,0.0,0.6925019999998767
529,12,0.5,0.125,-35.0,-1,1.0,0.18290099999990161
530,12,0.5,0.125,35.0,1,1.0,0.37920200000007753
531,12,0.5,0.25,-35.0,-1,1.0,0.2327020000000175
532,12,0.5,0.125,-35.0,-1,1.0,0.30270199999995384
533,12,0.5,1.0,-35.0,-1,1.0,0.2296010000000024
534,12,0.5,0.125,-35.0,-1,1.0,0.3264010000000326
535,12,0.5,0.25,35.0,-1,0.0,0.12940200000002733
536,12,0.4,0.25,-35.0,1,0.0,0.36950099999990016
537,12,0.5,1.0,-35.0,-1,1.0,0.3099010000000817
538,12,0.5,0.125,35.0,1,1.0,0.2405020000001059
539,12,0.5,0.0625,35.0,1,1.0,0.14650200000005498
540,12,0.5,0.25,-35.0,-1,1.0,0.21670200000016848
541,12,0.5,1.0,-35.0,-1,1.0,0.23350200000004406
542,12,0.5,1.0,-35.0,-1,1.0,0.1509009999999762
543,12,0.5,0.25,-35.0,-1,1.0,0.3136010000000624
544,12,0.5,0.25,-35.0,-1,1.0,0.36400099999991653
545,12,0.5,0.125,-35.0,-1,1.0,0.24400200000013683
546,12,0.5,1.0,35.0,1,1.0,0.18750199999999495
547,12,0.5,0.0,35.0,-1,0.0,0.24820199999999204
548,12,0.5,0.125,-35.0,1,0.0,0.1346009999999751
549,12,0.5,0.0,35.0,-1,0.0,1.811002000000144
550,12,0.5,0.25,-35.0,1,0.0,0.4949010000000271
551,12,0.5,0.25,35.0,1,1.0,0.2950010000001839
552,12,0.5,0.125,35.0,1,1.0,0.7218020000000251
553,12,0.5,0.125,35.0,1,1.0,0.24840199999994184
554,12,0.5,0.0625,-35.0,-1,1.0,0.2817010000001119
555,12,0.5,0.25,-35.0,-1,1.0,0.36190200000032746
556,12,0.5,0.125,-35.0,1,0.0,0.20190200000001823
557,12,0.5,0.0,35.0,-1,0.0,0.2590020000000095
558,12,0.5,0.0,-35.0,1,0.0,0.48210199999994074
559,12,0.6,0.0,-35.0,-1,1.0,0.2792019999999411
560,12,0.5,1.0,-35.0,-1,1.0,0.2858010000002196
561,12,0.5,0.0,-35.0,-1,1.0,0.11910100000000057
562,12,0.5,0.25,-35.0,-1,1.0,0.3829009999999471
563,12,0.5,1.0,35.0,1,1.0,0.20920200000000477
564,12,0.5,0.0625,-35.0,-1,1.0,0.21590100000003076
565,12,0.5,0.125,35.0,1,1.0,0.24610100000018065
566,12,0.5,0.25,-35.0,-1,1.0,0.26600100000018756
567,12,0.5,0.25,35.0,1,1.0,0.23640199999999822
568,12,0.5,0.25,35.0,1,1.0,0.2395010000000184
569,12,0.5,0.0,-35.0,-1,1.0,0.489900999999918
570,12,0.5,1.0,-35.0,-1,1.0,0.1759020000001783
571,12,0.5,0.25,35.0,1,1.0,0.2832019999998465
572,12,0.5,0.0625,35.0,-1,0.0,2.5236009999998714
573,12,0.5,0.125,35.0,1,1.0,0.19690200000013647
574,12,0.5,0.25,-35.0,-1,1.0,-0.04989799999998468
575,12,0.5,1.0,-35.0,-1,1.0,0.4403010000000904
576,12,0.5,0.25,-35.0,-1,1.0,0.37420200000019577
577,12,0.5,0.25,-35.0,-1,1.0,0.22040100000003804
578,12,0.5,0.0625,35.0,1,1.0,0.9243019999998978
579,12,0.5,0.0625,35.0,-1,0.0,0.3707019999997101
580,12,0.5,0.0625,-35.0,1,0.0,0.34750199999962206
581,12,0.5,0.25,35.0,1,1.0,0.2310019999999895
582,12,0.5,0.25,-35.0,-1,1.0,0.17480199999954493
583,12,0.5,1.0,35.0,1,1.0,0.19100100000014208
584,12,0.5,0.0625,-35.0,-1,1.0,0.04120100000000093
585,12,0.5,0.0,-35.0,1,0.0,1.6281009999997877
586,12,0.5,0.125,35.0,1,1.0,0.5720009999995455
587,12,0.5,1.0,-35.0,-1,1.0,0.3852019999994809
588,12,0.5,0.25,-35.0,-1,1.0,0.9083019999998214
589,12,0.5,0.0,35.0,1,1.0,0.23890099999971426
590,12,0.5,0.125,-35.0,-1,1.0,0.32530199999973775
591,12,0.5,0.0625,-35.0,1,0.0,0.2926009999996495
592,12,0.5,0.0625,-35.0,-1,1.0,0.15920099999993909
593,12,0.5,1.0,35.0,1,1.0,0.19890099999975064
594,12,0.5,1.0,-35.0,-1,1.0,0.31910199999992983
595,12,0.5,0.25,35.0,1,1.0,0.22580099999959202
596,12,0.5,1.0,-35.0,-1,1.0,0.7791019999995115
597,12,0.5,0.125,-35.0,1,0.0,0.16920200000004115
598,12,0.5,0.125,35.0,1,1.0,0.516501000000062
599,12,0.5,0.25,-35.0,-1,1.0,0.1961019999994278
600,12,0.5,0.0,35.0,1,1.0,0.50970099999995
601,12,0.5,0.0,-35.0,1,0.0,1.519702000000052
602,12,0.5,0.125,-35.0,1,0.0,0.18290099999967424
603,12,0.5,0.25,-35.0,-1,1.0,-0.0634979999999814
604,12,0.5,0.0,35.0,-1,0.0,0.33310100000016973
605,12,0.5,0.0625,-35.0,1,0.0,0.3600019999998949
606,12,0.5,0.125,-35.0,-1,1.0,0.06340200000022378
607,12,0.5,0.125,35.0,-1,0.0,0.22680099999979575
608,12,0.5,0.125,-35.0,-1,1.0,0.24020199999995384
609,12,0.5,1.0,-35.0,-1,1.0,0.20700200000010227
610,12,0.5,0.25,-35.0,-1,1.0,0.2605009999997492
611,12,0.5,0.25,-35.0,-1,1.0,0.29070099999989907
612,12,0.5,0.125,-35.0,-1,1.0,0.263901999999689
613,12,0.5,0.125,35.0,1,1.0,0.26500199999964025
614,12,0.5,0.0625,-35.0,-1,1.0,0.337601000000177
615,12,0.5,0.0625,35.0,1,1.0,0.3749009999996815
616,12,0.5,0.25,35.0,1,1.0,0.2143009999995229
617,12,0.5,0.125,-35.0,-1,1.0,0.5281019999997625
618,12,0.5,0.25,-35.0,-1,1.0,0.14480099999946106
619,12,0.5,0.0625,35.0,1,1.0,0.46150099999931626
620,12,0.5,0.0625,35.0,1,1.0,0.4482020000000375
621,12,0.5,0.125,-35.0,-1,1.0,0.201600999999755
622,12,0.5,0.125,35.0,1,1.0,0.19180199999982506
623,12,0.5,0.25,-35.0,1,0.0,0.13540199999988545
624,12,0.5,0.25,-35.0,-1,1.0,0.30890199999976176
625,12,0.5,0.25,35.0,1,1.0,0.17200099999990925
626,12,0.5,0.0625,35.0,1,1.0,0.305800999999974
627,12,0.5,0.125,-35.0,1,0.0,0.22550100000034945
628,12,0.5,0.0625,-35.0,-1,1.0,0.4458019999992757
629,12,0.5,0.125,35.0,1,1.0,0.32290100000000166
630,12,0.5,0.25,-35.0,-1,1.0,0.23960200000010445
631,12,0.5,1.0,-35.0,-1,1.0,0.38620099999980084
632,12,0.5,0.25,35.0,1,1.0,0.2130019999999604
633,12,0.5,0.125,-35.0,-1,1.0,0.2362009999997099
634,12,0.5,1.0,-35.0,-1,1.0,0.2563020000002325
635,12,0.5,0.25,-35.0,-1,1.0,0.18620199999986653
636,12,0.5,0.25,-35.0,-1,1.0,0.19950100000005477
637,12,0.5,0.25,35.0,1,1.0,0.19650199999978213
638,12,0.5,0.0,35.0,1,1.0,0.44680099999959566
639,12,0.5,0.0625,-35.0,1,0.0,0.3601010000002134
640,12,0.5,0.0,-35.0,-1,1.0,0.22030199999971956
641,12,0.5,0.0,-35.0,-1,1.0,1.1936009999999442
642,12,0.5,0.0625,35.0,-1,0.0,0.2502009999998336
643,12,0.5,0.125,-35.0,-1,1.0,0.187300999999934
644,12,0.5,0.0,35.0,-1,0.0,0.3607010000000628
645,12,0.5,0.0625,-35.0,1,0.0,0.26750099999981103
646,12,0.4,0.0625,35.0,-1,0.0,0.19400199999972756
647,12,0.5,1.0,35.0,1,1.0,0.2645019999995384
648,12,0.5,0.0625,-35.0,-1,1.0,0.2941009999999551
649,12,0.5,0.125,35.0,1,1.0,0.327502000000095
650,12,0.5,0.25,-35.0,-1,1.0,0.22130199999992328
651,12,0.5,0.125,35.0,1,1.0,0.2714019999998527
652,12,0.5,0.25,-35.0,-1,1.0,0.2112010000000737
653,12,0.5,0.125,-35.0,-1,1.0,0.2613010000000031
654,12,0.5,1.0,-35.0,-1,1.0,0.16840199999933247
655,12,0.5,0.25,-35.0,-1,1.0,0.2649019999998927
656,12,0.5,1.0,35.0,1,1.0,0.20540100000016537
657,12,0.5,1.0,35.0,1,1.0,0.22820199999978286
658,12,0.5,0.0,-35.0,1,0.0,0.1984019999999873
659,12,0.5,0.0,35.0,1,1.0,0.5918009999995775
660,12,0.5,0.125,-35.0,-1,1.0,0.25600200000008044
661,12,0.5,0.0625,35.0,1,1.0,0.1854019999996126
662,12,0.5,0.0625,35.0,1,1.0,0.24240099999997256
663,12,0.5,0.0625,-35.0,1,0.0,0.4223009999996066
664,12,0.5,0.25,35.0,-1,0.0,0.1794009999998707
665,12,0.5,0.25,-35.0,-1,1.0,0.06580099999973754
666,12,0.5,0.0,-35.0,-1,1.0,0.3361009999998714
667,12,0.5,0.125,35.0,1,1.0,0.33930199999986144
668,12,0.5,1.0,-35.0,-1,1.0,0.21930099999963204
669,12,0.5,0.25,35.0,1,1.0,0.1796009999998205
670,12,0.5,0.125,-35.0,1,0.0,0.9629019999997581
671,12,0.5,0.25,-35.0,-1,1.0,0.28630199999997785
672,12,0.5,0.0625,-35.0,-1,1.0,0.2196019999996679
673,12,0.5,0.0,35.0,-1,0.0,0.2231019999999262
674,12,0.5,0.0625,35.0,1,1.0,0.2073009999999158
675,12,0.5,0.25,-35.0,-1,1.0,0.33720199999970646
676,12,0.5,1.0,-35.0,-1,1.0,0.27050099999996746
677,12,0.5,0.25,-35.0,-1,1.0,0.5069019999996272
678,12,0.5,0.25,-35.0,-1,1.0,0.22020199999951728
679,12,0.5,0.125,35.0,1,1.0,0.2774010000002818
680,12,0.5,1.0,35.0,1,1.0,0.2042019999994409
681,12,0.5,1.0,-35.0,-1,1.0,0.14070200000014665
682,12,0.5,0.0,-35.0,-1,1.0,0.24440099999992526
683,12,0.5,1.0,35.0,1,1.0,0.23080099999970116
684,12,0.5,0.25,-35.0,1,0.0,0.15070099999957165
685,12,0.5,0.125,35.0,1,1.0,0.42460199999959514
686,12,0.5,0.0625,-35.0,1,0.0,0.5779019999999946
687,12,0.5,0.0625,-35.0,-1,1.0,0.34110199999986435
688,12,0.5,0.0,-35.0,1,0.0,0.4915019999998549
689,12,0.5,0.25,-35.0,-1,1.0,0.26850199999989854
690,12,0.5,0.125,35.0,1,1.0,0.22200199999997494
691,12,0.5,0.0625,-35.0,1,0.0,0.24800099999993108
692,12,0.7,0.0625,-35.0,-1,1.0,0.3054019999999582
693,12,0.5,1.0,-35.0,-1,1.0,0.38840199999958713
694,12,0.5,0.0625,35.0,1,1.0,0.3619010000002163
695,12,0.5,0.25,35.0,1,1.0,0.2152009999999791
696,12,0.5,0.0625,-35.0,1,0.0,0.18530199999986507
697,12,0.5,0.0,35.0,-1,0.0,0.30880100000013044
698,12,0.6,0.0,-35.0,-1,1.0,0.18940099999963422
699,12,0.5,1.0,-35.0,-1,1.0,0.24230099999977028
700,12,0.5,1.0,35.0,1,1.0,0.18900100000018938
701,12,0.5,0.0,-35.0,-1,1.0,3.602501999999731
702,12,0.5,1.0,-35.0,-1,1.0,0.1996009999998023
703,12,0.5,0.0625,35.0,1,1.0,0.7726010000001224
704,12,0.5,1.0,35.0,1,1.0,0.23600199999964389
705,12,0.5,1.0,35.0,1,1.0,0.22310199999947145
706,12,0.5,0.0,-35.0,-1,1.0,0.23310099999980594
707,12,0.5,0.25,35.0,1,1.0,0.23330199999963952
708,12,0.5,0.25,-35.0,-1,1.0,0.669601999999486
709,12,0.5,0.0625,-35.0,-1,1.0,0.2537019999995209
710,12,0.5,0.25,35.0,1,1.0,0.5100019999999859
711,12,0.5,0.125,-35.0,-1,1.0,0.29660100000000966
712,12,0.5,0.0,-35.0,1,0.0,0.7332010000000082
713,12,0.5,0.0,-35.0,-1,1.0,0.23030199999993783
714,12,0.5,0.0625,-35.0,1,0.0,3.357101999999486
715,12,0.5,0.0625,35.0,1,1.0,0.5376009999999951
716,12,0.5,0.25,-35.0,1,0.0,1.5611019999996643
717,12,0.5,0.0625,35.0,-1,0.0,0.17410199999949327
718,12,0.5,0.125,-35.0,-1,1.0,0.2874019999999291
719,12,0.5,1.0,-35.0,-1,1.0,0.32410099999970043
720,12,0.5,1.0,-35.0,-1,1.0,0.22080200000027617
721,12,0.5,1.0,-35.0,-1,1.0,0.28080099999988306
722,12,0.5,0.25,35.0,1,1.0,0.35100199999988035
723,12,0.5,0.125,35.0,1,1.0,0.44130099999938466
724,12,0.5,0.125,35.0,1,1.0,0.3446009999997841
725,12,0.5,0.125,-35.0,1,0.0,0.31140099999993254
726,12,0.5,0.25,-35.0,-1,1.0,0.20190199999979086
727,12,0.5,0.25,35.0,1,1.0,0.28150099999948
728,12,0.5,0.0625,35.0,1,1.0,0.43560200000001714
729,12,0.5,0.125,35.0,1,1.0,0.25830199999973047
730,12,0.5,0.125,-35.0,-1,1.0,0.19190199999957258
731,12,0.5,0.0625,-35.0,-1,1.0,1.3686009999996713
732,12,0.5,1.0,35.0,1,1.0,0.20590200000015102
733,12,0.5,0.125,-35.0,-1,1.0,0.299101999999948
734,12,0.5,1.0,-35.0,-1,1.0,0.3890010000000075
735,12,0.5,0.0,35.0,1,1.0,0.21890099999973245
736,12,0.5,0.25,-35.0,-1,1.0,3.7489019999993616
737,12,0.5,0.25,-35.0,-1,1.0,0.21270199999980832
738,12,0.5,0.125,35.0,1,1.0,0.3727019999996628
739,12,0.5,1.0,35.0,1,1.0,0.2765009999998256
740,12,0.5,1.0,-35.0,-1,1.0,0.24600199999986216
741,12,0.5,0.125,35.0,1,1.0,0.25670199999967735
742,12,0.5,0.25,35.0,1,1.0,0.22640199999977995
743,12,0.5,0.25,-35.0,1,0.0,0.13300200000003315
744,12,0.6,0.25,-35.0,-1,1.0,0.34370199999966644
745,12,0.5,1.0,35.0,1,1.0,0.223500999999942
746,12,0.5,0.0625,35.0,1,1.0,0.2541009999999915
747,12,0.5,1.0,-35.0,-1,1.0,0.41030099999989034
748,12,0.5,0.0,35.0,1,1.0,0.440501999999924
749,12,0.5,0.125,-35.0,1,0.0,0.21710100000018429
750,12,0.5,0.0,-35.0,1,0.0,0.5306020000002718
751,12,0.5,0.125,35.0,1,1.0,0.28060099999993326
752,12,0.5,0.0625,35.0,1,1.0,0.28760099999954036
753,12,0.5,0.0625,-35.0,-1,1.0,0.20760100000006787
754,12,0.5,0.25,-35.0,-1,1.0,0.201401999999689
755,12,0.5,0.0625,35.0,1,1.0,0.46110200000020996
756,12,0.5,1.0,-35.0,-1,1.0,0.20790100000021994
757,12,0.5,0.125,-35.0,1,0.0,0.44140099999958693
758,12,0.5,0.25,-35.0,-1,1.0,0.13140100000009625
759,12,0.5,0.125,35.0,1,1.0,0.44150200000012774
760,12,0.5,0.125,35.0,1,1.0,1.7717020000000048
761,12,0.5,0.25,-35.0,-1,1.0,0.1882009999994807
762,12,0.5,0.0625,-35.0,-1,1.0,0.9622019999997065
763,12,0.5,0.0625,-35.0,-1,1.0,0.24500099999977465
764,12,0.5,0.25,35.0,1,1.0,0.2651019999998425
765,12,0.5,0.0,35.0,1,1.0,0.18920200000002296
766,12,0.5,0.125,-35.0,-1,1.0,0.22890199999983452
767,12,0.5,0.0,-35.0,1,0.0,0.24220199999990655
768,12,0.5,0.25,-35.0,-1,1.0,0.23580100000026505
769,12,0.5,0.0625,35.0,-1,0.0,0.2859009999997397
770,12,0.4,0.0625,35.0,-1,0.0,0.21630199999981414
771,12,0.5,1.0,-35.0,-1,1.0,0.27210099999956583
772,12,0.5,0.25,35.0,1,1.0,0.3623019999999997
773,12,0.5,0.0625,-35.0,-1,1.0,0.20220199999994293
774,12,0.5,0.125,35.0,1,1.0,0.5024019999996199
775,12,0.5,1.0,-35.0,-1,1.0,0.23580200000014884
776,12,0.5,0.25,35.0,1,1.0,0.5826009999996131
777,12,0.5,0.125,-35.0,-1,1.0,0.2794020000001183
778,12,0.5,1.0,35.0,1,1.0,0.20280200000024706
779,12,0.5,0.0625,-35.0,-1,1.0,0.0029019999997217383
780,12,0.5,0.25,-35.0,-1,1.0,0.3531009999996968
781,12,0.5,0.25,-35.0,-1,1.0,0.2998010000001159
782,12,0.5,0.0625,35.0,1,1.0,0.21990099999993618
783,12,0.5,1.0,35.0,1,1.0,0.21000099999946542
784,12,0.5,1.0,-35.0,-1,1.0,0.23670099999981176
785,12,0.5,0.125,35.0,1,1.0,0.24690099999952508
786,12,0.5,0.0,35.0,1,1.0,0.8202019999994263
787,12,0.5,1.0,35.0,1,1.0,0.22700199999962933
788,12,0.5,0.25,35.0,1,1.0,0.17050199999948745
789,12,0.5,0.25,35.0,1,1.0,0.2005020000001423
790,12,0.5,1.0,-35.0,-1,1.0,0.24400099999957092
791,12,0.5,0.0,35.0,-1,0.0,0.3408009999998285
792,12,0.7,0.0,-35.0,-1,1.0,0.22760099999959493
793,12,0.5,1.0,-35.0,-1,1.0,0.21770100000003367
794,12,0.5,0.125,35.0,1,1.0,0.3277009999992515
795,12,0.5,1.0,-35.0,-1,1.0,0.27780200000006516
796,12,0.5,0.125,35.0,1,1.0,0.24460199999975885
797,12,0.5,1.0,35.0,1,1.0,0.17470099999991362
798,12,0.5,0.25,35.0,1,1.0,0.2749010000002272
799,12,0.5,0.0625,35.0,1,1.0,0.19820099999969898
800,12,0.5,0.125,35.0,1,1.0,0.3349009999997179
801,12,0.5,0.125,-35.0,-1,1.0,0.1650019999997312
802,12,0.5,1.0,-35.0,-1,1.0,0.3884020000000419
803,12,0.5,0.0625,35.0,1,1.0,0.7287010000000009
804,12,0.5,0.25,-35.0,-1,1.0,0.24890099999993254
805,12,0.5,1.0,-35.0,-1,1.0,0.3456009999995331
806,12,0.5,0.125,35.0,1,1.0,0.20560099999966042
807,12,0.5,1.0,35.0,1,1.0,0.29240100000015445
808,12,0.5,0.25,-35.0,-1,1.0,0.2658010000000104
809,12,0.5,0.0625,35.0,1,1.0,0.33250200000020413
810,12,0.5,1.0,-35.0,-1,1.0,0.2360009999997601
811,12,0.5,0.0625,35.0,1,1.0,0.2227010000001428
812,12,0.5,0.0625,35.0,1,1.0,0.3796019999999771
813,12,0.5,0.25,-35.0,-1,1.0,0.2863009999996393
814,12,0.5,0.125,35.0,1,1.0,0.17640199999959805
815,12,0.5,0.0,35.0,-1,0.0,0.23310199999968972
816,12,0.5,0.125,35.0,1,1.0,0.5466009999995549
817,12,0.5,0.0625,-35.0,1,0.0,0.4534019999996417
818,12,0.5,0.0625,35.0,-1,0.0,0.2202009999996335
819,12,0.5,0.0,35.0,-1,0.0,0.9005019999999604
820,12,0.5,0.125,35.0,1,1.0,0.3140019999996184
821,12,0.5,0.25,-35.0,1,0.0,0.17070200000034674
822,12,0.6,0.25,35.0,1,1.0,0.21080099999971935
823,12,0.5,1.0,-35.0,-1,1.0,0.2110010000001239
824,12,0.5,0.0625,35.0,1,1.0,0.25110099999983504
825,12,0.5,0.125,-35.0,1,0.0,0.2312019999999393
826,12,0.5,0.25,35.0,1,1.0,0.3946019999998498
827,12,0.5,0.125,35.0,1,1.0,0.16800100000000384
828,12,0.5,0.125,35.0,1,1.0,0.25810099999944214
829,12,0.5,0.0,35.0,1,1.0,1.9015019999997094
830,12,0.5,0.25,-35.0,-1,1.0,0.2550019999998767
831,12,0.5,0.25,-35.0,-1,1.0,0.26500099999975646
832,12,0.5,0.25,-35.0,-1,1.0,0.255200999999488
833,12,0.5,0.0625,35.0,1,1.0,0.38180099999999584
834,12,0.5,0.25,-35.0,-1,1.0,0.3052010000001246
835,12,0.5,0.0625,35.0,1,1.0,0.22870199999988472
836,12,0.5,0.0625,35.0,1,1.0,0.4288010000000213
837,12,0.5,0.0,-35.0,-1,1.0,0.25230199999987235
838,12,0.5,0.25,-35.0,-1,1.0,0.058901999999761756
839,12,0.5,0.0625,35.0,1,1.0,0.46230199999990873
840,12,0.5,0.0,35.0,-1,0.0,0.4591009999999187
841,12,0.5,0.25,35.0,1,1.0,0.19250099999953818
842,12,0.5,1.0,-35.0,-1,1.0,0.2227010000001428
843,12,0.5,0.0625,-35.0,1,0.0,0.6494019999995544
844,12,0.5,0.0625,35.0,1,1.0,0.9662009999997281
845,12,0.5,0.0625,35.0,1,1.0,0.5495009999999638
846,12,0.5,0.0,35.0,-1,0.0,0.2797019999998156
847,12,0.5,0.25,35.0,1,1.0,0.21310199999970791
848,12,0.5,0.125,-35.0,-1,1.0,0.29330099999970116
849,12,0.5,0.25,-35.0,-1,1.0,1.5167010000000118
850,12,0.5,0.125,-35.0,-1,1.0,0.2402019999994991
851,12,0.5,1.0,35.0,1,1.0,0.22680199999967954
852,12,0.5,0.25,35.0,1,1.0,0.2402009999996153
853,12,0.5,0.25,-35.0,-1,1.0,0.2572019999997792
854,12,0.5,0.125,35.0,1,1.0,0.28040099999998347
855,12,0.5,0.25,-35.0,-1,1.0,3.250601000000188
856,12,0.5,1.0,35.0,1,1.0,0.2473019999997632
857,12,0.5,1.0,35.0,1,1.0,0.20070099999975355
858,12,0.5,0.125,-35.0,1,0.0,0.1674009999996997
859,12,0.5,0.0625,35.0,1,1.0,0.3776009999996859
860,12,0.5,1.0,-35.0,-1,1.0,0.23090199999978722
861,12,0.5,0.125,-35.0,-1,1.0,0.2643009999997048
862,12,0.5,1.0,-35.0,-1,1.0,0.41780100000005405
863,12,0.5,0.25,35.0,1,1.0,0.20460099999991144
864,12,0.5,0.25,35.0,1,1.0,0.24140199999965262
865,12,0.5,0.25,-35.0,-1,1.0,0.2281009999996968
866,12,0.5,0.125,-35.0,-1,1.0,0.4882019999995464
867,12,0.5,0.0,-35.0,1,0.0,0.34820099999978993
868,12,0.5,0.0,35.0,1,1.0,0.5416009999999005
869,12,0.5,1.0,-35.0,-1,1.0,0.36180199999944307
870,12,0.5,0.25,-35.0,-1,1.0,0.2719010000000708
871,12,0.5,0.25,-35.0,-1,1.0,0.3386019999998098
872,12,0.5,0.0,-35.0,-1,1.0,3.6654020000000855
873,12,0.5,0.0625,-35.0,1,0.0,0.22880099999974846
874,12,0.5,0.0625,35.0,1,1.0,0.315501999999924
875,12,0.5,0.0,35.0,-1,0.0,0.39910099999951854
876,12,0.5,0.0,35.0,1,1.0,0.4359009999998307
877,12,0.5,0.0,35.0,1,1.0,0.5225009999999202
878,12,0.5,0.0625,35.0,1,1.0,0.2759009999999762
879,12,0.5,1.0,35.0,1,1.0,0.23600200000009863
880,12,0.5,0.0625,-35.0,1,0.0,0.6894019999999728
881,12,0.5,0.0625,-35.0,-1,1.0,0.3095009999992726
882,12,0.5,0.125,-35.0,-1,1.0,0.2564019999995253
883,12,0.5,0.0,35.0,1,1.0,0.43640099999993254
884,12,0.5,1.0,35.0,1,1.0,0.19640099999969607
885,12,0.5,0.0625,-35.0,-1,1.0,0.2500019999997676
886,12,0.5,0.0625,-35.0,1,0.0,0.4166009999999005
887,12,0.7,0.0625,35.0,-1,0.0,0.4633009999997739
888,12,0.5,1.0,35.0,1,1.0,0.23680100000001403
889,12,0.5,0.0,35.0,1,1.0,0.23370199999999386
890,12,0.5,0.125,-35.0,-1,1.0,0.37710199999992255
891,12,0.5,0.25,-35.0,-1,1.0,0.5939009999997324
892,12,0.5,0.25,-35.0,-1,1.0,0.3239019999996344
893,12,0.5,0.0625,-35.0,1,0.0,0.6741009999996095
894,12,0.5,0.25,-35.0,-1,1.0,0.247501999999713
895,12,0.5,0.0625,35.0,1,1.0,0.2609019999999873
896,12,0.5,0.25,35.0,1,1.0,0.2543009999994865
897,12,0.5,1.0,-35.0,-1,1.0,0.21780200000011973
898,12,0.5,0.25,35.0,1,1.0,0.2411019999999553
899,12,0.5,0.125,-35.0,-1,1.0,0.25110099999983504
900,12,0.5,0.125,-35.0,-1,1.0,1.6813009999996211
901,12,0.5,0.125,35.0,1,1.0,0.3347019999996519
902,12,0.5,0.125,-35.0,-1,1.0,0.5848019999998542
903,12,0.5,0.0625,35.0,1,1.0,0.3015019999998003
904,12,0.5,0.0625,-35.0,1,0.0,0.38830100000041057
905,12,0.6,0.0625,35.0,1,1.0,0.1918020000002798
906,12,0.5,1.0,35.0,1,1.0,0.2018009999997048
907,12,0.5,0.125,-35.0,-1,1.0,0.5485009999997601
908,12,0.5,0.125,35.0,1,1.0,0.2185009999993781
909,12,0.5,0.25,-35.0,-1,1.0,0.2922019999996337
910,12,0.5,0.125,-35.0,-1,1.0,1.115502000000106
911,12,0.5,0.0,-35.0,1,0.0,0.2489009999994778
912,12,0.5,0.25,35.0,1,1.0,0.26560099999960585
913,12,0.5,1.0,35.0,1,1.0,0.1757009999996626
914,12,0.5,0.0625,-35.0,-1,1.0,0.36590199999955075
915,12,0.5,0.0,-35.0,-1,1.0,0.40930200000002515
916,12,0.5,0.25,35.0,1,1.0,0.3128019999994649
917,12,0.5,0.0625,35.0,-1,0.0,0.33950099999992744
918,12,0.5,0.125,35.0,1,1.0,0.25960099999974773
919,12,0.5,1.0,-35.0,-1,1.0,0.2198009999997339
920,12,0.5,0.0,-35.0,1,0.0,0.7865009999995891
921,12,0.5,0.0,35.0,1,1.0,0.5734010000001035
922,12,0.5,0.0,35.0,-1,0.0,0.35330100000010134
923,12,0.5,0.25,-35.0,-1,1.0,0.30350099999986924
924,12,0.5,1.0,35.0,1,1.0,0.21350099999972372
925,12,0.5,0.125,-35.0,1,0.0,0.33030199999939214
926,12,0.5,0.0,-35.0,1,0.0,0.4938010000000759
927,12,0.5,0.0,35.0,-1,0.0,0.5973019999996723
928,12,0.5,0.125,-35.0,-1,1.0,0.3341019999998025
929,12,0.5,0.0,35.0,1,1.0,10.06410199999982
930,12,0.5,0.125,-35.0,-1,1.0,0.89120099999991
931,12,0.5,0.125,35.0,1,1.0,0.3245010000000548
